participantID,wordSetID,rt,stimulus,trial_index,key_press
652,0,2751.454999903217,2,3,56
652,0,923.9700001198798,4,4,53
652,0,701.0399999562651,5,5,51
300,0,6856.444999983069,2,3,56
300,0,5175.814999965951,4,4,53
300,0,1793.660000024829,5,5,51
519,0,1613.4450000245124,2,3,56
519,0,1550.1100000110455,4,4,53
519,0,6238.650000013877,5,5,51
65,0,7905.904999934137,2,3,56
65,0,2183.4400000516325,4,4,53
65,0,1775.8400000166148,5,5,51
314,0,5257.924999983516,2,3,56
314,0,2036.1699999775738,4,4,53
314,0,1250.049999973271,5,5,51
431,0,1455.5549999931827,2,3,56
431,0,1422.3050000000512,4,4,53
431,0,1253.9749999996275,5,5,56
370,0,2618.5499999992317,2,3,56
370,0,1622.160000002652,4,4,53
370,0,1791.8649999992922,5,5,51
735,0,1572.9350000037812,2,3,56
735,0,2566.9549999875017,4,4,53
735,0,8213.950000004843,5,5,51
465,0,10347.000000008848,2,3,56
465,0,2236.0000000335276,4,4,53
465,0,4.0000000153668225,5,5,52
437,0,3618.0000002495944,2,3,56
437,0,1773.0000000447035,4,4,53
437,0,3376.000000163913,5,5,51
346,0,1812.9750000080094,2,3,56
346,0,943.1600000243634,4,4,53
346,0,1371.4700000127777,5,5,51
50,0,4657.654999988154,2,3,56
50,0,1436.3299999968149,4,4,53
50,0,1321.0000000544824,5,5,51
239,0,4929.614999971818,2,3,56
239,0,2870.714999968186,4,4,53
239,0,1691.7750000138767,5,5,51
347,0,2708.504999987781,2,3,56
347,0,1904.2549999430776,4,4,53
347,0,1582.9650000669062,5,5,51
399,0,1687.6550000015413,2,3,56
399,0,2326.6050000092946,4,4,53
399,0,3197.4150000023656,5,5,51
38,0,39674.770000001445,2,3,56
38,0,1537.0449999973061,4,4,53
38,0,1039.9800000013784,5,5,51
409,0,4017.3450000584126,2,3,56
409,0,1977.7049999684095,4,4,53
409,0,1995.325000025332,5,5,51
633,0,2274.089999962598,2,3,56
633,0,2443.9499999862164,4,4,53
633,0,1272.2000000067055,5,5,51
670,0,15283.010000013746,2,3,56
670,0,4693.72000003932,4,4,53
670,0,3335.900000005495,5,5,51
313,0,3630.750000011176,2,3,56
313,0,1245.8499999775086,4,4,53
313,0,1189.89499998861,5,5,51
84,0,2495.7949999998164,2,3,56
84,0,2442.994999999428,4,4,53
84,0,1614.6149999995032,5,5,56
612,0,12071,2,3,56
612,0,1573,4,4,53
612,0,1255,5,5,51
70,0,23294.999999925494,2,3,13
70,0,13341.999999713153,4,4,13
70,0,4378.000000026077,5,5,13
516,0,3499.1099999751896,2,3,56
516,0,2247.845000005327,4,4,53
516,0,2732.270000036806,5,5,51
221,0,4874.540000000252,2,3,56
221,0,1593.4400000001006,4,4,53
221,0,1277.1450000000186,5,5,51
551,0,5886.679999530315,2,3,56
551,0,6856.975000351667,4,4,53
551,0,1383.7750004604459,5,5,51
173,0,5312.099999999191,2,3,56
173,0,3284.9950000018,4,4,53
173,0,2250.1499999998487,5,5,51
486,0,4345.805000000837,2,3,56
486,0,1455.7299999996758,4,4,53
486,0,1184.5549999998184,5,5,51
687,0,4200.719999964349,2,3,56
687,0,1288.2799999788404,4,4,52
687,0,1269.33000003919,5,5,51
158,0,5111.290000000736,2,3,56
158,0,3315.7050000154413,4,4,53
158,0,4401.974999986123,5,5,51
115,0,6922.77499998454,2,3,51
80,0,2507.655000081286,2,3,56
80,0,2368.3250001631677,4,4,53
115,0,3161.8500000040513,4,4,53
80,0,1947.1299999859184,5,5,51
223,0,10206.435000058264,2,3,56
223,0,2462.434999877587,4,4,53
115,0,5316.834999975981,5,5,56
223,0,1917.9699998348951,5,5,51
681,0,20075.34999999916,2,3,13
681,0,3340.794999996433,4,4,53
681,0,3226.3550000061514,5,5,51
667,0,7574.190000013914,2,3,56
667,0,1547.9300000006333,4,4,53
667,0,1404.4400000129826,5,5,51
109,0,2995.3649999806657,2,3,56
NA,0,5439.424999989569,2,3,56
109,0,1907.3349999962375,4,4,53
NA,0,2160.6850000098348,4,4,53
109,0,1493.77000000095,5,5,51
NA,0,2586.520000360906,5,5,51
114,0,21081.000000005588,2,3,56
114,0,2940.999999991618,4,4,53
114,0,3130.9999999357387,5,5,51
461,0,8909.32999999859,2,3,13
461,0,13382.63999999981,4,4,13
601,0,10995.000000111759,2,3,56
601,0,1803.0000000726432,4,4,53
601,0,2584.999999962747,5,5,56
461,0,58786.96499999933,5,5,51
220,0,1595.9949999960372,2,3,56
220,0,1204.0049999995972,4,4,53
220,0,1448.6150000011548,5,5,51
287,0,41849.99999997672,2,3,56
287,0,14639.00000002468,4,4,13
662,0,11103.375000006054,2,3,13
662,0,1291.449999960605,4,4,13
662,0,1697.8850000305101,5,5,13
666,0,15357.00000000088,2,3,13
309,0,1652.5800000017625,2,3,56
309,0,1441.7350000003353,4,4,53
309,0,3019.7899999984656,5,5,51
666,0,21036.00000000005,4,4,13
666,0,3805.9999999995925,5,5,13
287,0,88602.0000000135,5,5,56
243,0,1386.5099999820814,2,3,56
243,0,1165.5500000342727,4,4,53
243,0,1134.5750000327826,5,5,51
5,0,4041.685000003781,2,3,56
5,0,1409.14000000339,4,4,53
5,0,1047.164999996312,5,5,51
200,0,1470.8899999968708,2,3,56
200,0,1655.0799999386072,4,4,53
200,0,1302.4200000800192,5,5,51
420,0,3580.935000005411,2,3,56
420,0,1452.1050000039395,4,4,53
420,0,1168.7049999891315,5,5,51
330,0,4846.004999999423,2,3,56
330,0,4302.72999999579,4,4,53
330,0,4854.844999994384,5,5,51
182,0,3656.5600000030827,2,3,56
182,0,1939.184999995632,4,4,53
182,0,1587.824999995064,5,5,51
72,0,2180.350000009639,2,3,56
72,0,1154.1350000188686,4,4,53
72,0,1824.4449999765493,5,5,51
233,0,2158.594999462366,2,3,56
233,0,1909.854999743402,4,4,53
233,0,1982.625000178814,5,5,51
63,0,9063.59999999404,2,3,56
63,0,3058.7899999227375,4,4,53
63,0,1984.7550000995398,5,5,51
181,0,1384.5250000013039,2,3,56
181,0,1563.2299999706447,4,4,53
181,0,1403.9849999826401,5,5,51
318,0,4239.999999990687,2,3,13
318,0,1070.9999999962747,4,4,13
318,0,812.9999998491257,5,5,13
593,0,4869.000000006054,2,3,56
593,0,1539.9999999790452,4,4,53
593,0,1436.9999999762513,5,5,51
418,0,2706.6549999872223,2,3,56
418,0,2409.1149999876507,4,4,53
418,0,13090.93499998562,5,5,51
598,0,646.7149999998583,5,5,13
503,0,8042.0000000158325,2,3,56
503,0,2421.999999904074,4,4,53
555,0,15287.87500000908,2,3,56
503,0,2777.0000000018626,5,5,51
555,0,2392.950000008568,4,4,53
555,0,2094.264999992447,5,5,51
553,0,8642.679999989923,2,3,56
553,0,2464.8400000005495,4,4,53
416,0,2792.235000000801,2,3,56
416,0,1101.714999997057,4,4,53
553,0,2240.9150000021327,5,5,51
416,0,988.3799999952316,5,5,51
358,0,3502.1149999993213,2,3,56
358,0,1491.20000000039,4,4,53
358,0,1190.0600000008126,5,5,51
119,0,3537.999999942258,2,3,56
119,0,19878.000000026077,4,4,53
119,0,3261.999999987893,5,5,51
307,0,2959.5400000107475,2,3,56
307,0,2003.2549999887124,4,4,53
642,0,5069.469999987632,2,3,56
642,0,1678.3500000601634,4,4,53
307,0,2619.84499997925,5,5,51
642,0,2989.3300000112504,5,5,51
329,0,2074.819999979809,2,3,56
329,0,1085.0900000077672,4,4,53
329,0,732.2500000009313,5,5,51
611,0,4338.835000002291,2,3,56
611,0,1535.6499999761581,4,4,53
611,0,1749.0899999975227,5,5,51
98,0,16591.260000132024,2,3,56
242,0,13430.280000000042,2,3,13
98,0,1880.5899997241795,4,4,53
488,0,4544.0400000006775,2,3,13
257,0,2598.234999983106,2,3,56
98,0,1942.0549999922514,5,5,51
488,0,1809.6050000003743,4,4,13
257,0,1941.045000043232,4,4,53
257,0,2099.7600000118837,5,5,51
488,0,2833.4950000007666,5,5,13
242,0,8396.839999999997,4,4,13
242,0,2360.9599999999773,5,5,13
472,0,4397.1699999819975,2,3,56
472,0,1467.384999996284,4,4,53
472,0,1554.4400000071619,5,5,51
685,0,4150.484999991022,2,3,56
685,0,1662.4599999631755,4,4,53
703,0,1901.7100000055507,2,3,56
685,0,1326.4649999910034,5,5,51
703,0,1254.2649999959394,4,4,53
703,0,1949.625000008382,5,5,51
342,0,8268.569999956526,2,3,56
342,0,1590.7799999695271,4,4,53
342,0,922.249999945052,5,5,51
211,0,15300.999999977648,2,3,56
175,0,2589.7300000069663,2,3,56
175,0,1286.7099999566562,4,4,53
175,0,1351.2550000450574,5,5,51
211,0,5744.999999995343,4,4,53
211,0,3658.999999985099,5,5,51
NA,0,2331.6899994388223,2,3,56
NA,0,1527.3500001057982,4,4,53
NA,0,2010.7249999418855,5,5,51
658,0,2678.0150000122376,2,3,56
658,0,1157.4849999742582,4,4,53
658,0,1311.1900000367314,5,5,51
470,0,11112.999999895692,2,3,55
470,0,201.0000003501773,4,4,56
470,0,6104.000000283122,5,5,51
144,0,6427.279999945313,2,3,13
144,0,1227.919999975711,4,4,13
144,0,5827.410000027157,5,5,13
607,0,4794.190000000526,2,3,56
607,0,2453.589999997348,4,4,53
607,0,4914.35000000638,5,5,51
686,0,16302.154999691993,2,3,56
686,0,1510.9300003387034,4,4,53
686,0,1454.1349997743964,5,5,51
170,0,68520.12000000104,2,3,13
170,0,1665.3599999990547,4,4,13
170,0,1331.6150000027847,5,5,13
558,0,2428.6349997855723,2,3,56
558,0,1348.8399998750538,4,4,53
558,0,898.3000000007451,5,5,51
733,0,2283.0949999624863,2,3,13
733,0,1371.6199999907985,4,4,13
733,0,1017.2550000133924,5,5,13
187,0,3875,2,3,56
187,0,1446.9999999855645,4,4,53
47,0,10532.000000122935,2,3,56
187,0,1328.9999999979045,5,5,51
494,0,9233.1000000122,2,3,56
47,0,3515.000000130385,4,4,53
494,0,3502.7049999916926,4,4,53
494,0,1360.530000005383,5,5,51
47,0,6336.999999824911,5,5,51
52,0,3189.4950000569224,2,3,56
52,0,1761.1399999586865,4,4,53
52,0,1285.715000005439,5,5,51
157,0,2978.9449999807402,2,3,56
157,0,810.1100000785664,4,4,53
157,0,1016.9749999186024,5,5,51
606,0,6880.77000004705,2,3,13
606,0,5049.895000061952,4,4,13
606,0,12802.605000091717,5,5,51
46,0,1080.5699999909848,2,3,56
46,0,1237.6499999663793,4,4,53
46,0,983.005000045523,5,5,51
674,0,2844,2,3,56
674,0,2181,4,4,53
674,0,1546,5,5,51
75,0,9317.184999992605,2,3,56
75,0,3226.2050000135787,4,4,53
75,0,1723.2550000189804,5,5,51
547,0,7814.445000141859,2,3,56
547,0,1869.8149998672307,4,4,53
547,0,1447.724999859929,5,5,51
68,0,12550.31500000041,2,3,56
619,0,1463.359999936074,2,3,56
68,0,4476.255000045057,4,4,53
619,0,1332.715000025928,4,4,53
68,0,1812.7450000029057,5,5,51
619,0,1272.6500001735985,5,5,51
2,0,1427,2,3,56
2,0,1324,4,4,53
2,0,1208,5,5,51
560,0,5164.534999988973,2,3,56
560,0,2989.9250001180917,4,4,53
560,0,2192.809999920428,5,5,56
319,0,2763.9349999371916,2,3,56
319,0,1132.5000000651926,4,4,53
319,0,1126.6949998680502,5,5,51
252,0,5422.00000025332,2,3,13
252,0,2252.9999995604157,4,4,13
252,0,1932.0000000298023,5,5,13
53,0,4515.999999828637,2,3,56
53,0,4055.000000167638,4,4,53
53,0,2981.0000001452863,5,5,51
240,0,4198.305000027176,2,3,56
240,0,1414.565000042785,4,4,53
240,0,2118.049999990035,5,5,51
440,0,1974.0000000456348,2,3,56
440,0,1677.9999999562278,4,4,53
440,0,1132.0000000996515,5,5,51
248,0,6350.295000000158,2,3,56
248,0,1222.3750000011642,4,4,53
248,0,990.0850000012433,5,5,51
691,0,8719.280000019353,2,3,56
691,0,2898.6450000084005,4,4,53
691,0,2733.700000040699,5,5,51
462,0,28756.369999959134,2,3,13
462,0,16294.740000041202,4,4,13
462,0,13058.485000045039,5,5,13
332,0,5784.379999999146,2,3,56
332,0,1794.770000000426,4,4,53
332,0,2942.990000001373,5,5,51
393,0,3893.9650000538677,2,3,56
393,0,2201.0999999474734,4,4,53
393,0,2474.7100002132356,5,5,51
127,0,6286.710000000312,2,3,13
127,0,5568.824999994831,4,4,13
127,0,1386.4699999976438,5,5,13
288,0,1676.9249999997555,2,3,56
288,0,1382.499999999709,4,4,53
288,0,2013.8300000035088,5,5,51
151,0,5140.750000000466,2,3,56
151,0,1561.5200000001932,4,4,53
151,0,1696.585000000603,5,5,51
316,0,125462.99999998882,2,3,56
316,0,4568.99999990128,4,4,53
479,0,5497.894999978598,2,3,56
479,0,1939.9449999909848,4,4,53
316,0,3248.0000001378357,5,5,51
479,0,1126.4000000082888,5,5,51
565,0,4786.8949999974575,2,3,51
565,0,86.00999999907799,4,4,52
565,0,171.11999999906402,5,5,50
604,0,1746.1750000074971,2,3,56
604,0,1618.799999996554,4,4,53
604,0,1300.6100000056904,5,5,51
656,0,5958.660000003874,2,3,56
656,0,1546.4300000021467,4,4,53
656,0,1112.0350000128383,5,5,51
429,0,2247.914999985369,2,3,56
429,0,1032.7249999972992,4,4,53
429,0,1752.505000011297,5,5,51
204,0,3359.324999997625,2,3,56
204,0,3256.5600000089034,4,4,53
204,0,2493.9249999879394,5,5,51
566,0,3937.340000000404,2,3,13
566,0,1040.8650000008492,4,4,13
566,0,449.53499999974156,5,5,13
245,0,4221.01500001736,2,3,56
245,0,1298.6950000049546,4,4,53
245,0,1326.1100000236183,5,5,51
85,0,2982.524999999441,2,3,56
85,0,995.1149999978952,4,4,53
85,0,919.0749999834225,5,5,51
281,0,22162.999999999563,2,3,56
281,0,1992.0000000002037,4,4,53
281,0,1484.0000000003783,5,5,51
405,0,25375,2,3,56
405,0,3494.9999999953434,4,4,53
405,0,2586.0000000102445,5,5,51
305,0,6658.000000054017,2,3,13
305,0,4814.999999944121,4,4,13
305,0,2313.0000000819564,5,5,13
335,0,5797.000000020489,2,3,56
335,0,3344.9999999720603,4,4,53
335,0,3185.9999999869615,5,5,51
126,0,1741.254999767989,2,3,56
126,0,1358.8699996471405,4,4,53
126,0,1662.4250002205372,5,5,51
425,0,7627.0000000004075,2,3,56
425,0,2152.0000000018626,4,4,53
425,0,2756.999999997788,5,5,51
226,0,1183.629999999539,2,3,56
226,0,1092.6200000030803,4,4,53
226,0,1132.8549999961979,5,5,51
89,0,10605.154999997467,2,3,13
89,0,3531.8299999999,4,4,13
89,0,2245.9000000017113,5,5,13
103,0,11081.99999993667,2,3,56
103,0,1908.9999999850988,4,4,53
103,0,1316.0000001080334,5,5,51
700,0,8817.504999999983,2,3,56
700,0,1606.670000000122,4,4,53
700,0,1474.0449999999328,5,5,51
217,0,2681.0000000114087,2,3,56
217,0,1377.3900000087451,4,4,53
217,0,929.3349999934435,5,5,51
683,0,3654.1749999742024,2,3,56
683,0,1407.1249999688007,4,4,53
380,0,1487.6750000112224,2,3,56
683,0,1279.3150000507012,5,5,51
380,0,1371.0850000206847,4,4,53
380,0,1284.0399999986403,5,5,51
246,0,4133.000000030734,2,3,56
246,0,2386.999999987893,4,4,53
246,0,4699.999999953434,5,5,51
477,0,1342.094999999972,2,3,56
477,0,1086.9999999995343,4,4,53
477,0,1637.4100000030012,5,5,51
493,0,1604.9699999857694,2,3,56
493,0,1933.119999943301,4,4,53
493,0,1997.8700000792742,5,5,51
196,0,144658.69499999098,2,3,56
196,0,1867.519999970682,4,4,53
196,0,1859.9900000263005,5,5,51
179,1,1846.3599999959115,2,3,56
179,1,1429.520000005141,4,4,53
179,1,645.8050000073854,5,5,51
446,1,15523.999999999887,2,3,13
446,1,19148.000000000146,4,4,13
446,1,6971.000000000007,5,5,13
161,1,6445.999999996275,2,3,56
161,1,3250,4,4,53
161,1,2012.9999999771826,5,5,51
7,1,2597.8749999776483,2,3,56
7,1,1770.4050000174902,4,4,53
7,1,1785.1600000285544,5,5,51
531,1,13256.529999955092,2,3,56
531,1,7617.224999994505,4,4,13
531,1,1084.7300000023097,5,5,13
597,1,5071.959999855608,2,3,56
597,1,2283.4750001784414,4,4,53
597,1,11233.835000079125,5,5,51
132,1,3326.8049999896903,2,3,56
132,1,1826.40999997966,4,4,53
132,1,7854.909999994561,5,5,51
718,1,5481.660000019474,2,3,56
718,1,7969.075000000885,4,4,53
718,1,4289.02999998536,5,5,53
501,1,5498.599999991711,2,3,56
501,1,1466.485000011744,4,4,53
501,1,1455.0149999849964,5,5,51
120,1,5621.334999988903,2,3,56
120,1,1153.4449999890057,4,4,53
120,1,1157.2000000014668,5,5,51
639,1,6403.934999998426,2,3,56
639,1,1771.740000000107,4,4,53
639,1,1396.069999998872,5,5,56
732,1,2736.9499999913387,2,3,56
732,1,1297.5549999973737,4,4,53
732,1,1266.700000007404,5,5,51
672,1,2029.210000007879,2,3,56
672,1,1344.8950000019977,4,4,53
672,1,1267.6249999931315,5,5,51
507,1,2934.8949999985052,2,3,56
507,1,1810.685000004014,4,4,53
164,1,3528.630000000703,2,3,56
507,1,2108.2599999936065,5,5,51
164,1,1035.19999999844,4,4,53
164,1,1132.6050000061514,5,5,51
583,1,2559.9550000042655,2,3,56
583,1,1181.1350000207312,4,4,53
583,1,1360.705000028247,5,5,51
272,1,2930.5199999944307,2,3,56
272,1,268.1600000069011,4,4,56
272,1,1938.6749999976018,5,5,51
253,1,3819.9599999934435,2,3,13
253,1,4166.324999881908,4,4,50
419,1,3890.0999999896158,2,3,56
253,1,1029.1999999899417,5,5,51
192,1,4340,2,3,56
419,1,1499.7250000014901,4,4,53
192,1,1641,4,4,53
192,1,1819,5,5,51
419,1,4617.88499999966,5,5,51
697,1,4375.260000000708,2,3,56
651,1,2108.505000011064,2,3,56
697,1,1742.2799999985727,4,4,53
651,1,2683.4950000047684,4,4,53
697,1,2496.6199999980745,5,5,51
651,1,1417.0000000158325,5,5,51
506,1,45172.18500000308,2,3,56
506,1,2069.1099999967264,4,4,53
506,1,3426.4750000002095,5,5,51
458,1,1512,2,3,56
715,1,3066.000000020722,2,3,56
458,1,1412,4,4,53
715,1,1951.0000000009313,4,4,53
458,1,1176,5,5,51
715,1,1665.000000008149,5,5,51
123,1,38132.00000021607,2,3,56
37,1,3434.42000000141,2,3,56
37,1,1336.7699999980687,4,4,53
37,1,1380.3200000002107,5,5,51
123,1,3749.0000003017485,4,4,53
123,1,1955.9999997727573,5,5,51
650,1,2562.7299999978277,2,3,56
650,1,2072.5449999990815,4,4,53
650,1,4044.180000000779,5,5,51
327,1,6642.654999974184,2,3,56
327,1,1612.665000022389,4,4,53
327,1,2476.87999997288,5,5,51
304,1,10513.140000010026,2,3,56
304,1,3992.4250000040047,4,4,53
304,1,1138.7899999972433,5,5,51
535,1,3579.505000001518,2,3,56
535,1,1479.3199999985518,4,4,53
535,1,1362.7100000012433,5,5,51
297,1,3664.344999997411,2,3,56
297,1,2794.3699999595992,4,4,53
297,1,1759.0399999753572,5,5,51
56,1,1483.4700000355951,2,3,56
56,1,1503.1900000176392,4,4,53
56,1,2943.8849999569356,5,5,51
576,1,7777.110000140965,2,3,56
576,1,1681.4649999141693,4,4,53
706,1,3342.044999822974,2,3,56
576,1,4709.265000186861,5,5,51
706,1,1918.1249998509884,4,4,53
706,1,1795.380000025034,5,5,51
256,1,3050.21499999566,2,3,56
256,1,1550.344999996014,4,4,53
256,1,1757.3950000223704,5,5,51
198,1,12907,2,3,56
198,1,6586,4,4,53
198,1,2159,5,5,51
496,1,2605.9499999973923,2,3,56
496,1,1265.190000005532,4,4,53
496,1,1405.724999960512,5,5,51
251,1,11064.535000361502,2,3,13
511,1,8426.69499999829,2,3,56
251,1,4216.235000174493,4,4,13
511,1,2008.8500000019849,4,4,53
511,1,1693.6849999983679,5,5,51
251,1,2425.764999818057,5,5,13
30,1,4252.6900000011665,2,3,56
30,1,3071.120000000519,4,4,53
30,1,8620.599999998376,5,5,51
365,1,3456,2,3,56
365,1,1298,4,4,53
365,1,1461,5,5,51
197,1,6090.159999992466,2,3,56
197,1,3116.7249999998603,4,4,53
197,1,2158.179999998538,5,5,51
491,1,3832.38000003621,2,3,56
491,1,1833.2050000317395,4,4,53
491,1,1571.9149999786168,5,5,51
264,1,4473.824999993667,2,3,56
264,1,1024.4149999925867,4,4,53
264,1,1470.9299999813084,5,5,51
589,1,5218.025000000125,2,3,56
589,1,1137.974999999642,4,4,53
589,1,2219.3649999990157,5,5,51
92,1,5621.559999883175,2,3,13
92,1,6499.150000046939,4,4,13
92,1,19758.924999739975,5,5,13
571,1,3184.5050000047777,2,3,56
571,1,1478.0899999969406,4,4,53
571,1,1884.5100000035018,5,5,51
3,1,11693.000000203028,2,3,13
3,1,7098.9999999292195,4,4,13
3,1,2902.999999932945,5,5,13
489,1,5908.999999985099,2,3,56
489,1,1560.9999999869615,4,4,53
489,1,1328.0000002123415,5,5,51
386,1,2150.580000001355,2,3,56
386,1,1201.7849999974715,4,4,53
482,1,1572.3149999976158,2,3,56
386,1,1350.7099999987986,5,5,51
482,1,1447.4300000001676,4,4,53
482,1,1308.8699999789242,5,5,51
113,1,7731.809999997495,2,3,56
113,1,1749.294999986887,4,4,53
113,1,3810.1949999982025,5,5,51
42,1,1310,2,3,56
42,1,1184,4,4,53
42,1,1030,5,5,51
271,1,2524.695000000065,2,3,56
271,1,2013.5650000011083,4,4,53
271,1,1674.4200000102865,5,5,51
588,1,10237.940000020899,2,3,56
588,1,1435.7900000177324,4,4,53
588,1,1311.5649999817833,5,5,51
230,1,1982.6500000199303,2,3,56
230,1,1987.5149999861605,4,4,53
230,1,1780.3950000088662,5,5,56
55,1,2567.9999999701977,2,3,56
55,1,1956.99999993667,4,4,53
55,1,1729.0000000502914,5,5,51
680,1,5676.180000009481,2,3,13
680,1,1344.5099999662489,4,4,13
680,1,1165.740000025835,5,5,13
152,1,2482.000000003609,2,3,56
152,1,2035.0000000034925,4,4,53
152,1,1853.000000002794,5,5,51
62,1,2424.1649999748915,2,3,56
62,1,2407.6350000686944,4,4,53
62,1,1370.4999999608845,5,5,56
77,1,1190.195000031963,2,3,56
77,1,1158.434999990277,4,4,53
77,1,1551.9099999801256,5,5,51
448,1,1770.8200000049546,2,3,56
448,1,1139.6749999986496,4,4,53
448,1,638.2200000081211,5,5,51
266,1,1586.4700000383891,2,3,56
266,1,1606.0799999977462,4,4,53
266,1,1296.8550000223331,5,5,51
88,1,5457.885000156239,2,3,56
88,1,175.46499986201525,4,4,56
88,1,1137.140000006184,5,5,51
321,1,3226.7500000307336,2,3,56
321,1,1870.6549999769777,4,4,53
640,1,1781,2,3,56
321,1,2546.505000034813,5,5,51
640,1,2786,4,4,53
640,1,1198,5,5,51
NA,1,15374.49000000015,2,3,13
NA,1,7805.360000000292,4,4,13
NA,1,1315.9099999993487,5,5,13
698,1,1262.830000006943,2,3,56
698,1,1897.9299999919022,4,4,53
698,1,1000.5200000014156,5,5,51
721,1,4664.170000003651,2,3,56
721,1,2356.080000055954,4,4,53
721,1,2646.984999999404,5,5,51
600,1,1655.999999999949,2,3,56
600,1,1177.0000000005894,4,4,53
600,1,1085.9999999993306,5,5,51
22,1,3250.7100000511855,2,3,56
22,1,1372.2999999881722,4,4,53
22,1,1163.059999991674,5,5,51
228,1,3916,2,3,56
228,1,1848,4,4,53
228,1,2453,5,5,51
267,1,5044.889999997395,2,3,56
267,1,2271.2700000010955,4,4,53
267,1,3745.7549999999173,5,5,51
93,1,3638.8049999950454,2,3,56
93,1,6.479999981820583,4,4,57
93,1,1807.9000000143424,5,5,51
665,1,1552.9999999998836,2,3,13
665,1,1084.0000000025611,4,4,13
665,1,6789.000000004307,5,5,13
587,1,1562.7049999893643,2,3,56
587,1,1579.3500000145286,4,4,53
587,1,1023.6049999948591,5,5,51
286,1,5815,2,3,56
286,1,1446,4,4,53
286,1,1455,5,5,51
625,1,2883.544999989681,2,3,56
625,1,1351.874999993015,4,4,53
625,1,1325.9299999917857,5,5,51
282,1,1590.0750000728294,2,3,56
282,1,4942.395000020042,4,4,53
282,1,1118.610000004992,5,5,51
552,1,4625.664999999572,2,3,56
552,1,7026.255000000674,4,4,53
552,1,2342.945000000327,5,5,51
543,1,3725.0000000931323,2,3,56
209,1,11176.130000007106,2,3,56
209,1,2621.689999999944,4,4,53
543,1,3307.9999999608845,4,4,53
543,1,2505.000000121072,5,5,51
699,1,2515.7599999802187,2,3,56
699,1,1723.8999999826774,4,4,53
699,1,1592.8350000176579,5,5,51
209,1,31578.175000002375,5,5,13
131,1,4907.400000025518,2,3,56
131,1,1653.5350000485778,4,4,53
131,1,1531.7149999318644,5,5,51
97,1,7415,2,3,56
97,1,1584,4,4,53
97,1,1347,5,5,51
567,1,4262,2,3,56
567,1,2030,4,4,53
567,1,3105,5,5,56
671,1,5793.924999947194,2,3,56
671,1,2615.749999997206,4,4,53
671,1,1633.5200000321493,5,5,51
79,1,7496.680000000197,2,3,56
79,1,5824.844999999186,4,4,51
79,1,19133.09500000105,5,5,51
185,1,2758.2199999596924,2,3,56
185,1,2454.999999841675,4,4,53
185,1,3068.405000027269,5,5,51
508,1,3907.275000005029,2,3,56
508,1,1742.2800000058487,4,4,53
508,1,3278.859999962151,5,5,51
383,1,7190,2,3,56
383,1,1653,4,4,53
383,1,2063,5,5,51
450,1,11023.82500001113,2,3,56
450,1,2255.4499999969266,4,4,53
450,1,2566.6399999754503,5,5,51
74,1,5547.090000007302,2,3,13
74,1,1525.4100000020117,4,4,13
74,1,1386.5999999979977,5,5,13
737,1,13979.000000050291,2,3,56
737,1,388.00000003539026,4,4,56
737,1,32.00000012293458,5,5,56
90,1,25027.000000001863,2,3,56
90,1,1880.9999998193234,4,4,53
90,1,1685.9999999869615,5,5,51
143,1,5651.75999999966,2,3,56
143,1,1719.0149999996647,4,4,53
143,1,2518.4399999998277,5,5,51
112,1,3535.0000000034925,2,3,56
112,1,1046.0000000020955,4,4,56
112,1,592.000000004191,5,5,56
94,1,1932.2250000004715,2,3,56
94,1,1308.9399999989837,4,4,53
94,1,1855.9949999980745,5,5,51
235,1,8135.464999999385,2,3,51
235,1,5065.524999983609,4,4,54
235,1,2808.290000015404,5,5,13
21,1,2937.245000000985,2,3,56
21,1,1255.525000000489,4,4,53
21,1,940.8250000014959,5,5,51
111,1,2856.4300000143703,2,3,56
111,1,2674.1199999814853,4,4,53
111,1,3212.824999995064,5,5,56
57,1,2942.2100000083447,2,3,56
57,1,1305.7499999995343,4,4,53
57,1,1125.2450000029057,5,5,51
709,1,15971.000000368804,2,3,56
709,1,9702.000000048429,4,4,53
709,1,1836.9999998249114,5,5,51
713,1,2481.3800000119954,2,3,56
713,1,1666.525000007823,4,4,53
713,1,1138.2400000002235,5,5,51
324,1,6932.655000011437,2,3,56
324,1,2001.3650000328198,4,4,53
324,1,1381.1949999071658,5,5,51
64,1,5219.000000040978,2,3,56
64,1,2158.999999985099,4,4,53
64,1,1699.0000000223517,5,5,51
134,1,6235.775000066496,2,3,56
134,1,2580.3199999500066,4,4,53
134,1,3150.759999989532,5,5,51
592,1,1567.1950000105426,2,3,56
592,1,1284.6600000048056,4,4,53
592,1,1236.8049999931827,5,5,51
518,1,1847,2,3,56
59,1,17094.520000042394,2,3,56
518,1,1549,4,4,53
518,1,1643,5,5,51
525,1,2806.5150000002177,2,3,56
59,1,2800.2000000560656,4,4,53
525,1,1368.3749999981956,4,4,53
525,1,1008.2799999981944,5,5,51
59,1,1822.5150000071153,5,5,51
407,1,5877.559999993537,2,3,56
407,1,1582.3949999758042,4,4,53
407,1,1262.4899999937043,5,5,51
485,1,3693,2,3,56
485,1,1982,4,4,53
485,1,1807,5,5,51
726,1,3392.875000019558,2,3,13
99,1,1438.8400000170805,2,3,56
99,1,1085.510000004433,4,4,53
99,1,1052.8650000342168,5,5,51
726,1,3926.804999995511,4,4,13
726,1,2688.4699999936856,5,5,13
262,1,6136.62999999724,2,3,56
262,1,1594.9499999987893,4,4,53
262,1,2142.869999999675,5,5,51
421,1,1206.3849999103695,2,3,56
421,1,1454.050000058487,4,4,53
421,1,988.5299999732524,5,5,51
624,1,2652.5300000212155,2,3,56
624,1,1811.8849999736995,4,4,53
624,1,986.7200000444427,5,5,51
557,1,3915.984999970533,2,3,13
581,1,1957.1900000009919,2,3,56
581,1,1026.8099999993865,4,4,53
581,1,879.335000001447,5,5,51
557,1,8059.994999959599,4,4,53
557,1,2699.6500000241213,5,5,51
49,1,12964.000000152737,2,3,53
49,1,1958.0000001005828,4,4,52
49,1,483.99999970570207,5,5,53
148,1,2692.6350001012906,2,3,56
148,1,1887.8249999834225,4,4,53
148,1,1293.764999951236,5,5,51
142,1,2713.02999999898,2,3,56
142,1,3615.929999999935,4,4,53
142,1,1855.9999999997672,5,5,51
645,1,2624.80999995023,2,3,56
645,1,1291.1700000986457,4,4,53
645,1,2246.504999930039,5,5,51
39,1,1696.114999999736,2,3,56
39,1,1020.6499999999323,4,4,53
39,1,968.9550000002782,5,5,51
311,1,2489.02000000095,2,3,56
311,1,1417.2699999997858,4,4,53
311,1,1266.2449999987148,5,5,51
33,1,2891.185000000405,2,3,56
33,1,1634.2700000095647,4,4,53
33,1,1330.1550000032876,5,5,51
688,1,4547.23499994725,2,3,56
688,1,2855.600000009872,4,4,53
146,1,6604.999999981374,2,3,56
688,1,2021.1549999658018,5,5,51
146,1,3013.9999999664724,4,4,53
146,1,1969.0000000409782,5,5,51
195,1,2512.3350000358187,2,3,56
195,1,3349.030000041239,4,4,53
195,1,2880.2850000211038,5,5,51
336,1,1245.0150000004214,2,3,56
336,1,2405.4749999995693,4,4,53
336,1,1014.9999999994179,5,5,51
312,1,2674.3250000290573,2,3,56
312,1,1338.120000087656,4,4,53
312,1,1355.2649999037385,5,5,51
291,1,2028.9150000007794,2,3,56
291,1,1238.4299999994255,4,4,53
291,1,1458.3349999993516,5,5,51
150,1,2005.9150000015507,2,3,56
150,1,1390.7149999868125,4,4,53
150,1,1133.3250000025146,5,5,51
78,1,2964.0000000363216,2,3,56
78,1,2756.2749999924563,4,4,53
78,1,3924.2899999953806,5,5,51
534,1,2012.9999999771826,2,3,56
534,1,4342.274999973597,4,4,53
534,1,2094.1300000122283,5,5,51
724,1,1964.3700000001409,2,3,56
724,1,1611.3499999996711,4,4,53
724,1,1509.8050000001385,5,5,51
693,1,2609.5449999993434,2,3,56
693,1,1689.16999999783,4,4,53
693,1,1213.5099999977392,5,5,51
71,1,2908.9749999693595,2,3,56
71,1,2323.3600000385195,4,4,53
71,1,3654.4449999928474,5,5,51
572,1,3355.8800000464544,2,3,56
572,1,1766.6450000251643,4,4,53
572,1,1462.870000046678,5,5,51
627,1,6508.304999999382,2,3,56
627,1,1331.9799999999304,4,4,53
627,1,1004.4749999997293,5,5,51
227,1,18155.92500002822,2,3,56
227,1,3949.495000008028,4,4,53
227,1,5318.465000018477,5,5,51
554,1,1940,2,3,56
554,1,1148,4,4,53
554,1,1579,5,5,51
376,2,2787.2300000162795,2,3,56
376,2,1331.4949999912642,4,4,53
376,2,1184.1649999842048,5,5,51
176,2,2378.6350000009406,2,3,56
125,2,5917.360000079498,2,3,56
176,2,3949.9199999991106,4,4,53
176,2,1678.329999995185,5,5,51
125,2,2772.649999940768,4,4,53
125,2,5390.844999812543,5,5,51
6,2,3667.4699999857694,2,3,56
6,2,1172.9300000006333,4,4,53
6,2,1035.9349999343976,5,5,51
308,2,2869.9650000198744,2,3,56
308,2,2669.0899999812245,4,4,53
308,2,1629.7750000376254,5,5,51
1,2,5933,2,3,56
1,2,3165,4,4,53
1,2,3212,5,5,51
289,2,1388,2,3,56
289,2,1318,4,4,53
289,2,3014,5,5,51
584,2,3415,2,3,56
584,2,1534,4,4,53
584,2,1559,5,5,51
628,2,2333.8300003670156,2,3,56
628,2,1867.8899998776615,4,4,53
628,2,992.7700003609061,5,5,51
471,2,21666,2,3,56
471,2,7216,4,4,53
471,2,5916,5,5,51
469,2,2722.7249999996275,2,3,56
469,2,1236.205000001064,4,4,53
469,2,906.1800000054063,5,5,51
58,2,5412.30500000529,2,3,56
58,2,1835.9749999945052,4,4,53
58,2,6577.780000006896,5,5,51
387,2,4522.000000113621,2,3,56
387,2,4999.000000068918,4,4,53
615,2,4070.9050000295974,2,3,56
387,2,2942.9999999701977,5,5,51
615,2,2458.135000022594,4,4,53
615,2,1943.524999951478,5,5,51
352,2,5570.8749999994325,2,3,56
585,2,1174.0650000010646,2,3,55
352,2,1773.6650000006193,4,4,53
585,2,1390.9249999996973,4,4,53
585,2,895.1249999990978,5,5,51
352,2,1421.9450000000506,5,5,51
364,2,2762.3599999933504,2,3,56
364,2,1125.0250000011874,4,4,53
364,2,2507.0050000067567,5,5,51
193,2,11317.84499999776,2,3,56
193,2,2149.8649999994086,4,4,53
193,2,1975.6899999993038,5,5,51
128,2,7333.999999998923,2,3,56
128,2,1773.9999999976135,4,4,53
128,2,1386.000000002241,5,5,52
165,2,3156.7100000029313,2,3,56
497,2,2848.075000103563,2,3,56
165,2,7659.990000000107,4,4,53
165,2,1693.700000003446,5,5,51
497,2,2511.1750001087785,4,4,53
497,2,1108.269999967888,5,5,51
638,2,2501.790000125766,2,3,56
638,2,1206.9049999117851,4,4,53
638,2,1116.3750002160668,5,5,51
444,2,10293.335000053048,2,3,56
444,2,1396.3450000155717,4,4,53
444,2,1078.8650000467896,5,5,51
25,2,3081,2,3,56
25,2,1554,4,4,53
25,2,1336,5,5,51
412,2,3710.159999958705,2,3,56
412,2,1515.239999978803,4,4,53
412,2,1470.8100000279956,5,5,51
315,2,6899.130000000245,2,3,56
315,2,2346.230000000105,4,4,53
315,2,2054.590000000193,5,5,51
351,2,8518.745000001218,2,3,56
351,2,4462.584999993851,4,4,53
351,2,1358.780000002298,5,5,51
133,2,6059.114999996382,2,3,13
133,2,8482.524999999441,4,4,13
499,2,1601.3849999981176,2,3,56
499,2,1409.0300000025309,4,4,53
499,2,1643.000000000029,5,5,51
133,2,11955.81499999389,5,5,13
299,2,9722.149999986868,2,3,56
299,2,2485.979999997653,4,4,53
299,2,1426.5099999611266,5,5,51
11,2,12604.310000000623,2,3,56
11,2,2021.85499999905,4,4,53
11,2,1478.2149999991816,5,5,51
4,2,9414.419999986421,2,3,56
4,2,1777.5150000234134,4,4,53
4,2,1224.4550000177696,5,5,51
460,2,11287.985000002664,2,3,56
460,2,3270.424999995157,4,4,53
460,2,2264.1299999668263,5,5,51
274,2,2341,2,3,56
274,2,1722,4,4,53
274,2,1359,5,5,51
278,2,2361.0000000335276,2,3,56
278,2,2595.9999999031425,4,4,53
455,2,1848.1749999336898,2,3,56
278,2,1704.9999999580905,5,5,51
129,2,1896.3200002908707,2,3,56
455,2,1518.364999908954,4,4,53
455,2,765.9450001083314,5,5,51
129,2,1438.85999917984,4,4,53
129,2,1320.8750002086163,5,5,56
541,2,4230.6099999987055,2,3,55
541,2,2766.105000000607,4,4,53
541,2,1475.1599999999598,5,5,51
654,2,3485.9050000086427,2,3,56
654,2,1210.0149999605492,4,4,53
654,2,1080.03000007011,5,5,51
29,2,5726.490000030026,2,3,56
29,2,1811.9000000297092,4,4,53
29,2,1350.9650000487454,5,5,51
430,2,2486.199999926612,2,3,56
578,2,2858.2099999766797,2,3,56
430,2,1456.9099999498576,4,4,53
578,2,1317.8750000079162,4,4,53
430,2,1096.0900000063702,5,5,51
578,2,1373.2450000243261,5,5,51
357,2,1653.119999973569,2,3,56
357,2,1313.4100000024773,4,4,53
357,2,1187.4299999908544,5,5,51
48,2,12045.38500000126,2,3,56
48,2,1606.3700000013341,4,4,53
48,2,5668.174999998882,5,5,51
86,2,2389.6249999525025,2,3,56
86,2,1419.4999999599531,4,4,53
86,2,1117.8599999984726,5,5,51
216,2,1843.1200000923127,2,3,56
216,2,1387.9949999973178,4,4,53
216,2,1213.095000013709,5,5,51
641,2,3689.1499999910593,2,3,56
641,2,1834.8600000608712,4,4,53
641,2,1471.735000028275,5,5,51
385,2,14566.159999999974,2,3,56
385,2,1802.2700000000186,4,4,53
385,2,1573.96000000005,5,5,51
368,2,10644.490000035148,2,3,56
368,2,3264.659999986179,4,4,53
368,2,2562.389999977313,5,5,51
564,2,1959.275000001071,2,3,56
564,2,2232.5549999986542,4,4,53
564,2,1336.9800000000396,5,5,51
275,2,2598.279999976512,2,3,56
275,2,1900.6749999825843,4,4,53
275,2,1644.7350000380538,5,5,51
83,2,3309,2,3,56
83,2,1854,4,4,53
83,2,1829,5,5,56
542,2,18558.91000002157,2,3,56
574,2,4762.600000001839,2,3,56
574,2,1705.1400000054855,4,4,53
574,2,1525.854999999865,5,5,51
542,2,10886.175000108778,4,4,53
542,2,3335.094999987632,5,5,51
87,2,3914.134999999078,2,3,56
87,2,1476.669999974547,4,4,53
87,2,1134.684999997262,5,5,51
320,2,1263.63499998115,2,3,56
320,2,1205.7649999624118,4,4,53
320,2,1122.124999994412,5,5,51
205,2,39223.140000132844,2,3,56
205,2,2649.0249999333173,4,4,53
205,2,2405.8049998711795,5,5,51
414,2,4195.969999997033,2,3,56
414,2,1753.9049999977578,4,4,53
414,2,1649.054999998043,5,5,51
367,2,4460.250000000087,2,3,56
363,2,3535.954999999376,2,3,56
367,2,1529.1600000018661,4,4,53
367,2,1613.1149999964691,5,5,51
363,2,2050.5950000006123,4,4,53
363,2,1724.500000000262,5,5,51
655,2,5035.540000011679,2,3,56
655,2,3846.5500000165775,4,4,53
345,2,22792.000000132248,2,3,56
655,2,2192.0899999677204,5,5,51
153,2,2252.420000033453,2,3,56
153,2,1930.8299999684095,4,4,53
153,2,1930.324999964796,5,5,51
345,2,11269.000000087544,4,4,13
345,2,5800.999999977648,5,5,51
194,2,1045.1299999840558,2,3,56
194,2,952.1349999995437,4,4,53
194,2,959.3949999834877,5,5,51
438,2,2941.419999813661,2,3,56
438,2,2708.549999864772,4,4,54
438,2,2871.4799999725074,5,5,56
630,2,1557.059999999241,2,3,56
630,2,1286.579999999958,4,4,53
630,2,1246.6249999997672,5,5,51
517,2,2438.2949999999255,2,3,56
517,2,1844.8649999918416,4,4,53
517,2,2716.985000006389,5,5,51
410,2,1227.5749999971595,2,3,56
410,2,1169.899999978952,4,4,53
410,2,1099.0600000077393,5,5,51
382,2,1278.6999999952968,2,3,56
382,2,1074.880000000121,4,4,53
382,2,950.2449999854434,5,5,51
356,2,5352,2,3,56
177,2,3382.000000216067,2,3,56
177,2,2513.000000268221,4,4,53
356,2,7902,4,4,53
177,2,2114.0000000596046,5,5,51
356,2,2973,5,5,56
340,2,1441.1249999975553,2,3,56
340,2,5543.604999998934,4,4,53
12,2,3102,2,3,56
340,2,1993.494999998802,5,5,51
12,2,1156,4,4,53
12,2,1024,5,5,51
424,2,1882.7750000054948,2,3,56
424,2,1992.3650000127964,4,4,53
424,2,1356.9900000002235,5,5,51
701,2,2473.9999999292195,2,3,56
701,2,2159.00000045076,4,4,53
701,2,4007.000000216067,5,5,51
694,2,3342.254999996163,2,3,56
694,2,2138.709999999497,4,4,53
694,2,1842.5050000078045,5,5,51
341,2,2653,2,3,51
341,2,3635,4,4,51
341,2,12091,5,5,53
360,2,4049.18500000349,2,3,56
360,2,1382.5450000003912,4,4,53
360,2,1071.3400000022375,5,5,51
222,2,2572.1899999771267,2,3,56
381,2,3191.080000018701,2,3,56
381,2,1497.9150000144728,4,4,53
381,2,1168.1050000479445,5,5,51
222,2,17611.719999928027,4,4,13
222,2,1949.22999991104,5,5,51
378,2,7773,2,3,56
378,2,1266,4,4,53
378,2,1042,5,5,51
716,2,3225.6299999935436,2,3,56
716,2,2475.689999999304,4,4,53
716,2,2519.6950000026845,5,5,51
563,2,4354.999999981374,2,3,56
563,2,970.000000204891,4,4,56
563,2,1955.9999997727573,5,5,51
108,2,20563.014999992447,2,3,56
108,2,1988.0300000077114,4,4,53
108,2,2085.304999985965,5,5,56
447,2,4526.504999987083,2,3,56
447,2,2124.7699999948964,4,4,53
447,2,1059.3149999913294,5,5,51
234,2,7809.364999993704,2,3,56
202,2,5060.200000007171,2,3,56
234,2,3708.1949999992503,4,4,53
202,2,1609.104999981355,4,4,53
202,2,1149.364999961108,5,5,51
234,2,2667.939999999362,5,5,52
500,2,106637,2,3,56
500,2,2152,4,4,53
500,2,1464,5,5,51
122,2,18060.99999998696,2,3,13
122,2,12390.999999945052,4,4,13
122,2,16584.000000031665,5,5,13
168,2,1677.815000002738,2,3,56
168,2,1519.2450000031386,4,4,53
168,2,2070.980000018608,5,5,51
723,2,3698,2,3,56
723,2,6439,4,4,53
723,2,3499,5,5,51
13,2,46696.55999998213,2,3,13
13,2,26120.629999990342,4,4,13
13,2,19886.51499999105,5,5,13
595,2,8125.925000000279,2,3,56
595,2,11580.424999992829,4,4,53
124,2,2735,2,3,56
124,2,1377,4,4,53
124,2,1270,5,5,51
595,2,7574.1500000003725,5,5,56
428,2,10279,2,3,56
428,2,5343,4,4,53
428,2,2599,5,5,51
520,2,3186.245000000781,2,3,56
520,2,1358.6549999999988,4,4,53
520,2,2434.7500000003492,5,5,51
523,2,1761.8299999739975,2,3,56
523,2,1677.720000006957,4,4,53
523,2,1356.1999999801628,5,5,51
463,2,4611.634999993839,2,3,56
463,2,2741.749999986496,4,4,53
463,2,1393.9850000024308,5,5,51
265,2,2814.5999999833293,2,3,56
265,2,3116.314999992028,4,4,53
265,2,2445.349999994505,5,5,51
199,2,3154,2,3,56
199,2,1482,4,4,53
199,2,1394,5,5,51
207,2,9077.99999997951,2,3,56
207,2,1648.9999999757856,4,4,53
207,2,1913.9999999897555,5,5,51
514,2,8795.999999972992,2,3,56
514,2,4008.0000000307336,4,4,53
514,2,6257.0000000996515,5,5,51
533,2,1506.5450000111014,2,3,56
533,2,1029.3799999926705,4,4,53
533,2,1111.3100000075065,5,5,51
95,2,5775,2,3,56
95,2,1687,4,4,53
95,2,1406,5,5,51
369,2,3919.309999968391,2,3,56
369,2,1964.9799999897368,4,4,53
369,2,1474.564999982249,5,5,51
241,2,8755.455000005895,2,3,56
241,2,3721.3550000014948,4,4,53
241,2,3906.9349999917904,5,5,51
692,3,2372.4399999991874,2,3,56
738,3,2542.9800000274554,2,3,56
738,3,1118.4350000112318,4,4,53
738,3,925.615000014659,5,5,51
692,3,3261.725000003935,4,4,53
692,3,1787.2150000039255,5,5,51
634,3,3499.180000042543,2,3,56
292,3,1872.429999988526,2,3,56
292,3,1654.8249999759719,4,4,53
186,3,9287.000000011176,2,3,56
634,3,3493.199999909848,4,4,53
292,3,1516.7849999852479,5,5,51
96,3,1390.5700000000252,2,3,56
186,3,2131.9999997504056,4,4,53
96,3,1638.6849999998958,4,4,53
634,3,2789.9549999274313,5,5,51
186,3,1711.0000001266599,5,5,51
96,3,1822.1350000001166,5,5,51
293,3,4150.439999997616,2,3,56
293,3,1736.0050000133924,4,4,53
402,3,1721.3050000027579,2,3,51
293,3,1591.3699999800883,5,5,51
476,3,2154.7350000037113,2,3,56
402,3,1954.2550000005576,4,4,53
476,3,1469.455000005837,4,4,53
402,3,1811.1150000004272,5,5,51
476,3,1253.8749999948777,5,5,51
189,3,6427.0050000050105,2,3,56
189,3,1789.55499996664,4,4,53
647,3,4482.460000001083,2,3,56
647,3,1571.4800000005198,4,4,53
725,3,3946.490000000267,2,3,56
647,3,1329.8649999996996,5,5,51
189,3,6091.590000025462,5,5,56
725,3,2233.3049999997456,4,4,53
725,3,3097.0500000003085,5,5,51
261,3,2571.2549998424947,2,3,56
529,3,2543.610000051558,2,3,56
449,3,1800.0000000029104,2,3,56
261,3,1453.074999852106,4,4,53
529,3,1369.8749999748543,4,4,53
449,3,2027.0000000018626,4,4,53
529,3,1462.775000021793,5,5,51
261,3,1509.5850001089275,5,5,51
449,3,1591.0000000003492,5,5,51
549,3,8093,2,3,56
669,3,1098.6149999662302,2,3,56
549,3,1462,4,4,53
669,3,1297.8149999980815,4,4,53
201,3,3861.434999969788,2,3,56
549,3,1159,5,5,51
201,3,1549.924999999348,4,4,53
669,3,1845.9300000104122,5,5,51
14,3,1813.5999999940395,2,3,56
201,3,1606.5350000280887,5,5,51
14,3,2218.939999991562,4,4,53
105,2,5830,2,3,56
663,3,3339.704999998503,2,3,56
14,3,1688.22499999078,5,5,51
663,3,1491.070000003674,4,4,53
663,3,1513.729999998759,5,5,51
105,2,4487,4,4,13
678,3,10052.889999999024,2,3,56
105,2,774,5,5,13
678,3,2354.83000000022,4,4,53
284,3,30383.350000000064,2,3,13
678,3,2232.579999999871,5,5,51
483,3,11774.190000025555,2,3,56
483,3,2142.5100000342354,4,4,53
483,3,1549.5899999514222,5,5,51
107,3,1727.729999984149,2,3,56
107,3,1394.975000002887,4,4,53
107,3,1173.7700000230689,5,5,51
649,3,1850,2,3,56
649,3,1763,4,4,53
623,3,6541.999999986729,2,3,56
649,3,1724,5,5,51
623,3,4607.999999978347,4,4,53
596,3,6908.739999998943,2,3,56
623,3,6289.999999979045,5,5,51
596,3,1918.5949999955483,4,4,53
596,3,1493.5649999970337,5,5,51
561,3,7552.700000116602,2,3,56
582,3,3327,2,3,56
561,3,3100.2549999393523,4,4,54
31,3,1462.8599999996368,2,3,56
582,3,1686,4,4,53
31,3,1134.554999998727,4,4,53
31,3,1318.1400000012218,5,5,51
561,3,3176.179999951273,5,5,56
582,3,2749,5,5,51
284,3,38379.88000000008,4,4,13
579,3,3132.9050000003917,2,3,56
579,3,1526.1000000000422,4,4,53
579,3,1172.5450000003548,5,5,51
676,3,5508.299999986775,2,3,56
284,3,17302.15499999997,5,5,13
676,3,2132.8099999809638,4,4,53
676,3,1789.3299999996088,5,5,56
487,3,2550.264999968931,2,3,56
487,3,1859.5999999670312,4,4,53
487,3,8020.23999998346,5,5,51
136,3,7015.964999998687,2,3,56
136,3,5446.86499999807,4,4,53
136,3,1192.5850000006903,5,5,51
389,3,2717.625000048429,2,3,56
389,3,1723.445000126958,4,4,53
389,3,1579.6599998138845,5,5,51
155,3,3595.7300000009127,2,3,56
155,3,1309.7199999901932,4,4,53
219,3,2531.134999997448,2,3,56
219,3,1384.905000042636,4,4,53
155,3,2285.909999976866,5,5,51
219,3,1474.2950000218116,5,5,51
306,3,33794.93999999249,2,3,56
306,3,1382.130000012694,4,4,53
306,3,2319.4099999964237,5,5,51
24,3,2645.189999999726,2,3,56
24,3,1653.339999999851,4,4,53
24,3,3288.46000000021,5,5,51
734,3,4983.479999995325,2,3,56
417,3,4778.999999980442,2,3,56
734,3,1679.0949999704026,4,4,53
417,3,1667.5350000150502,4,4,53
734,3,1590.5500000226311,5,5,51
417,3,1620.2350000385195,5,5,51
668,3,2935.0799999956507,2,3,56
668,3,1314.489999997022,4,4,53
668,3,1023.1950000015786,5,5,51
403,3,4001.6749999995227,2,3,56
403,3,2574.0850000001956,4,4,53
403,3,2792.734999999084,5,5,51
539,3,1527.7299999979732,2,3,56
539,3,1076.9900000013877,4,4,53
539,3,1056.2900000004447,5,5,51
702,3,5097.099999999045,2,3,56
702,3,1621.3100000022678,4,4,53
702,3,1828.2749999997905,5,5,51
375,3,12046.0000000312,2,3,56
375,3,4239.999999990687,4,4,53
661,3,5989.300000001094,2,3,56
375,3,2673.000000009779,5,5,51
661,3,1962.4949999997625,4,4,53
661,3,1798.0199999947217,5,5,51
510,3,3211.699999985285,2,3,56
510,3,2213.2499999715947,4,4,53
510,3,1915.9700000309385,5,5,51
637,3,9188.999999983935,2,3,56
637,3,896.0000000079162,4,4,13
637,3,4706.999999994878,5,5,53
629,3,1477.2700000321493,2,3,56
629,3,1294.2350000375882,4,4,53
629,3,3685.0450000492856,5,5,51
442,3,2220.9450000082143,2,3,56
442,3,1866.5600000094855,4,4,53
442,3,1481.1849999969127,5,5,51
490,3,2826.2099999992643,2,3,56
490,3,1824.4550000017625,4,4,53
490,3,1810.9499999991385,5,5,51
653,3,2419.125000014901,2,3,56
653,3,1542.780000017956,4,4,53
653,3,1015.2449999877717,5,5,51
502,3,23074.010000098497,2,3,56
502,3,214.28999956697226,4,4,56
502,3,178.01999999210238,5,5,56
605,3,3293.26000000583,2,3,56
605,3,1346.6950000147335,4,4,53
605,3,3654.2999999946915,5,5,56
104,3,8415,2,3,56
104,3,1573,4,4,53
104,3,1452,5,5,51
167,3,1784,2,3,56
167,3,1740,4,4,53
167,3,3019,5,5,51
616,3,2783,2,3,56
616,3,1475,4,4,53
616,3,1113,5,5,51
280,3,3559.385000000475,2,3,56
280,3,2315.7549999887124,4,4,53
280,3,2420.2599999989616,5,5,51
505,3,3448.0650001205504,2,3,56
505,3,1204.1199998930097,4,4,53
729,3,2757.824999745935,2,3,56
505,3,1230.8600000105798,5,5,51
729,3,2816.8850000947714,4,4,53
729,3,4253.229999914765,5,5,51
101,3,5063.449999986915,2,3,56
101,3,1884.200000000419,4,4,53
101,3,1757.6000000117347,5,5,51
35,3,3220.9900000016205,2,3,56
35,3,1547.8650000004563,4,4,53
35,3,1024.13499999966,5,5,51
646,3,1949.0050000022165,2,3,56
646,3,1779.9449999874923,4,4,53
646,3,2576.870000018971,5,5,51
73,3,1782.3649999918416,2,3,56
73,3,1658.8249999913387,4,4,53
73,3,1547.7649999666028,5,5,51
259,3,2517,2,3,56
259,3,2153,4,4,53
731,3,1576,2,3,56
259,3,2237,5,5,51
731,3,1697,4,4,53
731,3,2823,5,5,56
635,3,2126.6799999866635,2,3,56
635,3,2222.4150000838563,4,4,53
635,3,5319.484999985434,5,5,56
719,3,1396.535000007134,2,3,56
509,3,6189.1949999844655,2,3,56
719,3,974.1999999969266,4,4,53
719,3,1148.3200000366196,5,5,51
509,3,2181.8249999778345,4,4,53
509,3,1613.4750000201166,5,5,51
504,3,9164.574999999782,2,3,56
504,3,1552.9249999999593,4,4,53
504,3,1216.5949999998702,5,5,51
594,3,4057.0000000298023,2,3,56
594,3,2222.000000067055,4,4,53
594,3,2151.0000000707805,5,5,51
344,3,5523.430000000182,2,3,56
344,3,1472.130000000092,4,4,53
344,3,1330.7999999997264,5,5,51
728,3,1758.814999993774,2,3,56
728,3,1150.3699999884702,4,4,53
728,3,1295.9850000042934,5,5,51
338,3,4234.859999967739,2,3,56
338,3,1348.2850000145845,4,4,53
338,3,1252.9999999678694,5,5,51
328,3,8924,2,3,56
184,3,1111.5299999946728,2,3,56
664,3,1588.8799999956973,2,3,56
328,3,1840,4,4,53
614,3,1151.290000000241,2,3,56
664,3,1293.9600000099745,4,4,53
184,3,1562.0549999875948,4,4,53
614,3,1182.3400000002875,4,4,53
328,3,1579,5,5,51
664,3,1277.9050000099232,5,5,51
184,3,1302.159999962896,5,5,51
614,3,1204.8999999997322,5,5,51
415,3,7416.980000009062,2,3,56
224,3,2930.3450000006706,2,3,56
415,3,1682.0500000030734,4,4,53
224,3,1585.5699999956414,4,4,53
54,3,10260.000000009313,2,3,57
260,3,1766.9050000004063,2,3,56
415,3,1422.3999999812804,5,5,51
224,3,1868.705000000773,5,5,51
260,3,1769.5399999975052,4,4,53
54,3,2652.9999999911524,4,4,54
260,3,1448.820000001433,5,5,51
51,3,11026.64999999979,2,3,56
54,3,8343.000000051688,5,5,51
51,3,4385.9599999996135,4,4,53
51,3,2855.865000000449,5,5,51
140,3,9660.000000032596,2,3,13
140,3,1626.9999999785796,4,4,13
140,3,1244.9999999953434,5,5,13
545,3,3836.1900000018068,2,3,56
521,3,4654.690000010305,2,3,56
545,3,1249.4550000119489,4,4,53
521,3,1236.5899999858811,4,4,53
545,3,1252.2349999926519,5,5,51
521,3,1157.4949999921955,5,5,51
468,3,1151.7749999766238,2,3,56
468,3,1521.7999999877065,4,4,53
468,3,895.2200000057928,5,5,51
660,3,62953.355000005104,2,3,56
273,3,16765.004999993835,2,3,56
660,3,7825.260000070557,4,4,53
660,3,1875.2250000834465,5,5,51
273,3,15432.375000003958,4,4,13
273,3,1180.7900000130758,5,5,13
135,3,3998.0250000953674,2,3,56
135,3,4202.724999981001,4,4,53
135,3,1723.119999980554,5,5,51
394,3,4844.5799999753945,2,3,56
394,3,2595.0149999698624,4,4,56
394,3,2920.680000039283,5,5,51
404,3,3075.790000031702,2,3,56
620,3,6530.999999959022,2,3,56
620,3,2692.9999999701977,4,4,53
404,3,3085.244999965653,4,4,53
159,3,1777.229999890551,2,3,56
620,3,2035.9999999636784,5,5,51
404,3,2164.7300000768155,5,5,51
159,3,1904.6350000426173,4,4,53
159,3,6052.0050001796335,5,5,51
456,3,1324.384999999893,2,3,56
456,3,1316.8549999973038,4,4,53
456,3,1170.3399999969406,5,5,56
536,3,6422,2,3,56
536,3,6324,4,4,53
536,3,3005,5,5,51
81,3,9082.764999999199,2,3,56
81,3,2163.410000001022,4,4,53
632,3,2868.7649999919813,2,3,56
632,3,1601.9099999975879,4,4,53
81,3,2276.5399999989313,5,5,51
632,3,964.6899999934249,5,5,51
544,3,7925.730000017211,2,3,56
544,3,2459.514999995008,4,4,53
544,3,2423.1649999856018,5,5,51
392,3,21324.999999953434,2,3,13
392,3,25246.00000004284,4,4,13
618,3,8294,2,3,56
618,3,10260,4,4,51
618,3,3721,5,5,56
392,3,35128.99999995716,5,5,51
727,3,5783.329999947455,2,3,56
727,3,1934.9999999976717,4,4,53
727,3,5284.849999996368,5,5,51
644,3,3462.7300000283867,2,3,56
644,3,1268.1899999734014,4,4,53
644,3,1268.4599999920465,5,5,51
550,3,3547.6650000200607,2,3,56
550,3,1997.864999982994,4,4,53
550,3,1445.5350000062026,5,5,51
577,3,6183.765000001586,2,3,56
577,3,2033.3600000012666,4,4,53
577,3,1254.9250000010943,5,5,51
208,3,4628.44000000041,2,3,51
188,3,1374.3949999916367,2,3,56
188,3,1189.3849999760278,4,4,53
188,3,1287.1499999891967,5,5,51
208,3,8069.6699999971315,4,4,53
208,3,1906.8800000241026,5,5,56
648,3,2429.724999994505,2,3,56
648,3,1053.154999972321,4,4,53
648,3,1011.2450000015087,5,5,51
279,3,2343.184999997902,2,3,56
279,3,1640.3549999959068,4,4,53
279,3,1618.7649999992573,5,5,51
498,3,26631.47000002209,2,3,55
498,3,5296.304999967106,4,4,53
498,3,2475.484999944456,5,5,51
657,3,1451.6149999108166,2,3,56
657,3,5073.109999997541,4,4,53
657,3,1473.1700000120327,5,5,51
433,3,5698.725000000195,2,3,56
433,3,2512.809999999263,4,4,53
433,3,2943.0849999998827,5,5,51
276,3,2195,2,3,56
117,3,11907.500000001164,2,3,56
276,3,1591,4,4,53
117,3,1373.3250000004773,4,4,53
117,3,1174.1850000016711,5,5,51
276,3,1233,5,5,51
481,3,5436,2,3,56
481,3,2325,4,4,53
481,3,1758,5,5,51
66,3,1186,2,3,56
66,3,1492,4,4,53
66,3,1039,5,5,51
427,3,3592,2,3,56
484,3,11156.000000002678,2,3,56
427,3,4840,4,4,53
427,3,5465,5,5,51
484,3,17455.999999998312,4,4,53
484,3,2582.9999999987194,5,5,51
580,3,3667.53500001505,2,3,56
580,3,1677.1900000749156,4,4,53
580,3,1447.7000000188127,5,5,51
478,3,2952.6200000000244,2,3,56
478,3,1639.259999999922,4,4,53
478,3,1880.365000000893,5,5,51
388,3,8628.81500000367,2,3,56
613,3,1526.849999994738,2,3,56
388,3,1634.9950000294484,4,4,53
613,3,1438.509999999951,4,4,53
388,3,1768.030000035651,5,5,51
613,3,1558.325000005425,5,5,51
374,3,6445.169999962673,2,3,56
374,3,1430.5399999720976,4,4,53
374,3,1479.2950000264682,5,5,51
712,3,1118,2,3,56
528,3,4686.6700000246055,2,3,56
712,3,1008,4,4,53
528,3,1254.4900000211783,4,4,53
712,3,850,5,5,51
528,3,997.7949999738485,5,5,51
603,3,5724.815000001399,2,3,56
603,3,1989.979999998468,4,4,53
400,3,1429.9600000376813,2,3,56
603,3,3184.979999998177,5,5,56
238,3,5642.014999999901,2,3,56
400,3,1630.4099999833852,4,4,53
532,3,3277.1350000039092,2,3,56
400,3,1693.5449999873526,5,5,51
532,3,1427.3949999987963,4,4,53
238,3,2749.434999999721,4,4,53
532,3,1304.3350000007194,5,5,51
238,3,3742.4350000001177,5,5,51
524,3,2058.1750000001193,2,3,56
690,3,1943.1649999460205,2,3,56
524,3,1024.1400000004433,4,4,53
690,3,991.0299999173731,4,4,53
690,3,974.904999951832,5,5,51
524,3,1602.125000000342,5,5,51
373,3,3563.000000001921,2,3,56
679,3,3857,2,3,56
373,3,1745.999999999185,4,4,53
679,3,1429,4,4,53
373,3,1517.9999999963911,5,5,51
679,3,1047,5,5,51
526,3,3472,2,3,56
353,3,3684.445000020787,2,3,56
526,3,2578,4,4,53
353,3,1500.220000045374,4,4,53
353,3,1219.0850001061335,5,5,51
526,3,1630,5,5,51
343,3,1966.9749999884516,2,3,56
323,3,21858.00000000745,2,3,56
323,3,1811.9999999180436,4,4,53
343,3,4225.765000010142,4,4,53
464,3,3221,2,3,56
323,3,1710.9999998938292,5,5,51
343,3,1452.3650000046473,5,5,51
302,3,2965.3199999884237,2,3,56
696,3,4207.069999996747,2,3,56
464,3,2015,4,4,53
295,3,1249.2649999912828,2,3,56
464,3,1546,5,5,51
302,3,2140.8749999973224,4,4,53
295,3,1352.855000004638,4,4,53
294,3,7732.714999991003,2,3,56
302,3,1974.755000002915,5,5,51
295,3,1444.725000008475,5,5,51
303,3,2489.0000000596046,2,3,13
696,3,6056.590000000142,4,4,53
294,3,3630.159999971511,4,4,53
294,3,2488.515000004554,5,5,51
303,3,6800.999999977648,4,4,13
82,3,9640.454999171197,2,3,56
303,3,3913.0000000586733,5,5,13
82,3,3681.715000420809,4,4,53
82,3,3550.685000605881,5,5,51
696,3,19356.58500000136,5,5,48
610,3,2455.9249999983876,2,3,56
610,3,1155.9850000012375,4,4,53
610,3,990.1499999978114,5,5,51
244,3,8030.200000001059,2,3,56
325,3,3978.30999999951,2,3,56
244,3,3206.18999999715,4,4,53
325,3,2011.1149999993359,4,4,53
325,3,1205.9100000005856,5,5,51
244,3,3806.3699999984237,5,5,51
183,3,11592.999999877065,2,3,56
183,3,2094.9999999720603,4,4,53
183,3,1732.0000000763685,5,5,51
556,3,4412.420000007842,2,3,56
556,3,1592.9699999978766,4,4,53
556,3,1996.694999979809,5,5,51
249,3,22650.540000293404,2,3,56
473,3,11096.300000004703,2,3,56
473,3,1748.3000000065658,4,4,53
473,3,1157.7000000106636,5,5,51
249,3,8393.740000203252,4,4,53
249,3,2793.250000104308,5,5,51
26,3,13659.105000002455,2,3,13
26,3,3101.5799999986484,4,4,13
26,3,7659.644999999728,5,5,13
212,3,3357.659999999669,2,3,56
212,3,1238.2350000007136,4,4,53
212,3,1184.255000000121,5,5,51
20,3,1633.9850000222214,2,3,56
20,3,1171.100000035949,4,4,53
20,3,972.2199999960139,5,5,51
480,3,3426.000000210479,2,3,56
480,3,1432.0000000298023,4,4,53
480,3,2661.0000000800937,5,5,51
350,3,3603.2449998892844,2,3,56
350,3,1151.0199999902397,4,4,53
350,3,1152.3450000677258,5,5,51
559,3,3629.825000069104,2,3,56
559,3,1536.2500000046566,4,4,53
559,3,3924.7449999675155,5,5,51
147,4,13891.744999999904,2,3,56
147,4,2066.864999999787,4,4,53
147,4,2249.2649999999194,5,5,51
515,4,1213.224999999511,2,3,56
515,4,1310.4100000000471,4,4,53
515,4,886.8099999999686,5,5,51
180,4,9144.035000000258,2,3,56
180,4,1856.9350000002487,4,4,53
180,4,1880.8250000001863,5,5,51
673,4,1538.1200000119861,2,3,56
673,4,1424.1849999816623,4,4,53
673,4,1345.4599999822676,5,5,51
317,4,1600.9549999944284,2,3,56
317,4,1299.4850000031875,4,4,53
317,4,1413.8099999981932,5,5,51
191,4,3383.0700000107754,2,3,56
704,4,4754.565000010189,2,3,56
191,4,1596.8200000061188,4,4,53
213,4,4589.995000002091,2,3,56
191,4,1224.4599999976344,5,5,51
213,4,1453.7100000015926,4,4,53
213,4,1193.4750000073109,5,5,51
326,4,2358.0000000001746,2,3,56
704,4,6749.194999996689,4,4,53
326,4,1968.9999999973224,4,4,53
704,4,3067.1650000003865,5,5,51
326,4,4233.000000000175,5,5,51
423,4,5767.534999991767,2,3,56
568,4,3102.679999778047,2,3,56
28,3,7124.074999999721,2,3,56
423,4,1795.8850000286475,4,4,53
568,4,1853.984999936074,4,4,53
247,4,2877.5650000025053,2,3,56
423,4,1984.9299999768846,5,5,51
247,4,973.7450000247918,4,4,53
28,3,2913.959999998042,4,4,53
247,4,765.3050000080839,5,5,51
459,4,2469.3100000731647,2,3,56
28,3,2026.9350000016857,5,5,51
396,4,1972.1699999645352,2,3,56
568,4,4223.015000112355,5,5,51
459,4,1805.860000080429,4,4,53
396,4,1519.1699999850243,4,4,53
459,4,1996.0449999198318,5,5,51
396,4,1455.695000011474,5,5,56
391,4,3038.8349999993807,2,3,56
391,4,1461.9200000015553,4,4,53
203,4,3677,2,3,56
513,4,1260.7449998613447,2,3,56
495,4,1808.049999999639,2,3,56
156,4,5051.399999996647,2,3,56
391,4,1415.1600000041071,5,5,51
513,4,1059.2300000134856,4,4,53
203,4,1545,4,4,53
682,4,3054,2,3,56
156,4,1749.294999986887,4,4,53
513,4,900.1800001133233,5,5,51
495,4,2242.37500000163,4,4,53
137,4,2034.2199999722652,2,3,56
682,4,1553,4,4,53
156,4,1408.5099999792874,5,5,51
203,4,2694,5,5,51
710,4,1796.4849999998478,2,3,56
137,4,1516.219999990426,4,4,53
495,4,1833.60000000539,5,5,51
710,4,1490.8349999996062,4,4,53
69,4,3438.7449999994715,2,3,56
137,4,1442.4850000068545,5,5,51
682,4,2828,5,5,51
710,4,1353.2649999997375,5,5,51
69,4,3255.025000002206,4,4,53
631,4,5786.9750000027125,2,3,56
69,4,2308.1549999988056,5,5,51
631,4,1169.0100000050734,4,4,53
631,4,989.5249999972293,5,5,51
609,4,2415.995000003022,2,3,56
609,4,1443.7199999956647,4,4,53
609,4,1560.1250000036089,5,5,51
322,4,2832.18999998644,2,3,56
322,4,1407.4849999742582,4,4,53
322,4,1866.905000002589,5,5,51
166,4,1438.4050000226125,2,3,56
166,4,1452.9699999839067,4,4,53
166,4,1145.0000000186265,5,5,51
434,4,21770.000000018626,2,3,13
434,4,2376.9999999785796,4,4,13
43,4,11542.914999998175,2,3,56
434,4,2163.9999999897555,5,5,13
43,4,1941.9000000343658,4,4,53
43,4,1227.710000006482,5,5,51
361,4,101829.00000014342,2,3,56
361,4,6584.999999962747,4,4,53
361,4,4926.000000210479,5,5,51
708,4,1951.3000000006286,2,3,56
708,4,1159.2299999974784,4,4,53
708,4,1125.5349999992177,5,5,51
626,4,2195.144999999684,2,3,56
626,4,1408.465000000433,4,4,53
626,4,1148.8649999992049,5,5,51
659,4,7893.289999978151,2,3,56
530,4,9079.000000027008,2,3,13
530,4,5147.999999928288,4,4,13
530,4,3923.0000000679865,5,5,13
659,4,12566.790000011679,4,4,53
659,4,6428.7400000030175,5,5,51
162,4,1610,2,3,56
162,4,1792,4,4,53
162,4,1187,5,5,51
711,4,2711,2,3,56
474,4,1733.1249999988358,2,3,56
711,4,1647,4,4,53
474,4,1492.3200000193901,4,4,53
711,4,1551,5,5,51
474,4,1336.0699999902863,5,5,51
408,4,1385.115000011865,2,3,56
408,4,1675.4350000119302,4,4,53
408,4,1330.7999999960884,5,5,51
717,4,4791.649999999208,2,3,51
717,4,4107.939999987138,4,4,13
569,4,5140.769999998156,2,3,56
569,4,3166.640000010375,4,4,53
717,4,7966.519999987213,5,5,13
569,4,5511.664999998175,5,5,51
675,4,2847,2,3,56
675,4,1397,4,4,53
675,4,1516,5,5,51
160,4,16923.99999999907,2,3,56
527,4,3252,2,3,56
527,4,3643,4,4,53
160,4,7028.999999994994,4,4,53
527,4,3669,5,5,51
602,4,6613.344999990659,2,3,56
160,4,3263.999999995576,5,5,51
602,4,1523.8050000043586,4,4,53
720,4,1580.4650000063702,2,3,56
522,4,5978,2,3,56
602,4,1910.3300000133459,5,5,51
720,4,1489.9299999815412,4,4,53
720,4,1316.4200000173878,5,5,51
522,4,2930,4,4,53
522,4,2579,5,5,51
537,4,4306,2,3,56
537,4,2505,4,4,53
237,4,12197.830000019167,2,3,56
537,4,2490,5,5,51
36,4,3585.925000021234,2,3,56
298,4,6788.999999989755,2,3,56
36,4,1250.144999998156,4,4,53
36,4,1302.544999984093,5,5,51
237,4,9767.294999968726,4,4,53
237,4,2449.0550000336953,5,5,51
270,4,2033,2,3,56
298,4,5206.99999993667,4,4,53
270,4,1301,4,4,53
298,4,2795.0000000419095,5,5,51
270,4,1529,5,5,51
689,4,2659.4650000042748,2,3,56
689,4,1339.0250000084052,4,4,53
689,4,2329.6599999885075,5,5,51
540,4,3256.0149999917485,2,3,56
34,4,10542.405000000144,2,3,56
540,4,1217.0599999953993,4,4,53
34,4,2261.1649999998917,4,4,53
379,4,7111,2,3,56
540,4,2861.5850000060163,5,5,51
34,4,1411.724999999933,5,5,51
379,4,2173,4,4,53
379,4,1555,5,5,51
116,4,1492.8899999940768,2,3,56
116,4,1705.1400000345893,4,4,53
348,4,1824.1700000071432,2,3,56
116,4,1563.7349999742582,5,5,51
538,4,11426.444999990053,2,3,56
154,4,1984.8449999990407,2,3,56
348,4,1521.710000000894,4,4,53
154,4,1647.644999990007,4,4,53
348,4,1308.290000015404,5,5,51
538,4,2501.410000026226,4,4,53
538,4,1566.1500000278465,5,5,51
154,4,2353.019999980461,5,5,51
355,4,3357.2250000433996,2,3,56
377,4,4071.999999927357,2,3,56
355,4,2837.6099999877624,4,4,53
377,4,2467.9999999934807,4,4,53
355,4,1876.7299999599345,5,5,51
454,4,8704.874999995809,2,3,56
575,4,2077.254999998331,2,3,56
443,4,4109.779999998864,2,3,56
575,4,1562.4099999986356,4,4,53
454,4,2406.4899999648333,4,4,53
443,4,1447.9299999948125,4,4,53
377,4,4524.999999906868,5,5,51
215,4,10052.475000000006,2,3,56
575,4,1550.2199999991717,5,5,51
443,4,1328.2150000013644,5,5,51
454,4,3500.7300000288524,5,5,51
215,4,4622.050000000003,4,4,53
301,4,1516.3199999988137,2,3,56
301,4,1369.2899999987276,4,4,53
215,4,6430.085000000006,5,5,51
301,4,2721.734999999171,5,5,51
41,4,2474.679999984801,2,3,56
41,4,2117.3199999611825,4,4,53
41,4,1534.1500000213273,5,5,51
366,4,9268.404999980703,2,3,56
390,4,23175.429999999324,2,3,56
366,4,1821.7749999603257,4,4,53
390,4,1361.5549999994982,4,4,53
366,4,1485.3349999757484,5,5,51
390,4,1527.1200000024692,5,5,51
475,4,2768.6749999411404,2,3,56
426,4,3197.0000000001164,2,3,56
475,4,1994.1650000400841,4,4,53
475,4,1510.759999975562,5,5,51
250,4,33908.87000001385,2,3,56
426,4,2643.000000003667,4,4,53
250,4,1973.1750000210013,4,4,53
426,4,2047.0000000059372,5,5,51
432,4,2561.0000000001746,2,3,56
250,4,1140.7100000069477,5,5,56
432,4,2046.000000000291,4,4,53
255,4,3966.965000028722,2,3,56
695,4,2712.2049999888986,2,3,56
432,4,1687.9999999996508,5,5,51
695,4,1338.3199999952922,4,4,53
255,4,1862.2999999206513,4,4,53
283,4,11278.324999962933,2,3,56
695,4,1334.3499999900814,5,5,51
255,4,1672.4750000284985,5,5,51
283,4,5223.784999921918,4,4,53
283,4,1707.4199999915436,5,5,51
91,4,8955.059999999321,2,3,56
91,4,1555.0950000006196,4,4,53
91,4,1405.999999999949,5,5,51
27,4,5627.975000010338,2,3,56
27,4,1783.7300000246614,4,4,53
27,4,1598.8300000317395,5,5,51
436,4,6824.3550000479445,2,3,56
436,4,1470.0799999991432,4,4,53
436,4,934.97500004014,5,5,52
466,4,4991.279999987455,2,3,56
466,4,1388.7499999837019,4,4,53
466,4,1425.0750000064727,5,5,51
371,4,12063.999999780208,2,3,56
371,4,3010.9999999403954,4,4,53
371,4,2061.9999999180436,5,5,51
290,4,1341.3000000000466,2,3,56
290,4,1581.400000002759,4,4,53
290,4,1453.9999999979045,5,5,51
171,4,22418.405000003986,2,3,56
171,4,3158.7300000246614,4,4,53
171,4,3432.340000057593,5,5,56
586,4,11350.700000009965,2,3,56
586,4,1877.1750000305474,4,4,53
586,4,1370.3849999583326,5,5,51
413,4,3340.565000020433,2,3,56
413,4,1535.875000001397,4,4,53
413,4,1485.4899999918416,5,5,51
139,4,29788.00000017509,2,3,56
130,4,1763,2,3,56
130,4,1251,4,4,53
139,4,2594.9999999720603,4,4,53
130,4,1295,5,5,51
139,4,2334.000000031665,5,5,51
174,4,2205.2000000112457,2,3,56
174,4,1246.6050000075484,4,4,53
174,4,1599.8899999976857,5,5,51
337,4,7200.930000006338,2,3,56
337,4,1885.3850000014063,4,4,53
730,4,26060.3200000005,2,3,56
337,4,1353.770000001532,5,5,51
730,4,3604.495000003226,4,4,53
730,4,1955.195000002277,5,5,51
206,4,2388.619999983348,2,3,56
206,4,1951.5150000224821,4,4,53
206,4,1747.1150000346825,5,5,51
372,4,1341.7600000393577,2,3,56
372,4,1573.004999954719,4,4,53
372,4,1549.814999976661,5,5,51
18,4,2040.03499999817,2,3,56
18,4,2937.3599999962607,4,4,53
18,4,1412.0899999979883,5,5,51
268,4,2497.7150000049733,2,3,56
268,4,1352.1900000050664,4,4,53
268,4,1181.2049999716692,5,5,51
617,4,3860.049999988405,2,3,51
422,4,4722,2,3,56
617,4,3255.88000001153,4,4,13
422,4,1768,4,4,53
617,4,1165.7950000080746,5,5,13
422,4,1587,5,5,51
277,4,2547,2,3,56
277,4,1393,4,4,53
277,4,1147,5,5,51
61,4,11952.02500000596,2,3,56
61,4,2396.3949999888428,4,4,53
61,4,2480.970000033267,5,5,51
121,4,4429.969999997411,2,3,56
121,4,1909.749999991618,4,4,53
121,4,655.1549999858253,5,5,51
451,4,3894.0000000875443,2,3,56
451,4,4050.000000046566,4,4,53
451,4,7836.999999941327,5,5,51
15,4,1523.9400001009926,2,3,56
15,4,1405.7100000791252,4,4,53
15,4,1621.240000007674,5,5,51
622,4,3695.1399999998102,2,3,56
622,4,1517.2499999971478,4,4,53
622,4,1329.5799999978044,5,5,51
643,4,4081,2,3,56
643,4,1228,4,4,53
643,4,1197,5,5,51
45,4,1870.855000000156,2,3,56
45,4,1038.5300000007264,4,4,53
45,4,982.9950000002864,5,5,51
677,4,17194.965000031516,2,3,56
677,4,3256.890000018757,4,4,53
677,4,3195.4549999791197,5,5,51
707,4,4106.000000145286,2,3,13
707,4,3132.9999999143183,4,4,13
707,4,3037.000000011176,5,5,13
384,4,2260.6849999865517,2,3,56
384,4,1790.590000047814,4,4,53
384,4,943.6400000122376,5,5,51
229,4,11993.11999999918,2,3,56
339,4,1880.3800000459887,2,3,56
229,4,2325.475000019651,4,4,53
339,4,1648.6300000105985,4,4,53
452,4,1159.904999891296,2,3,56
339,4,2123.8049999810755,5,5,51
452,4,1005.4249999811873,4,4,53
452,4,980.8300000149757,5,5,51
229,4,5063.655000005383,5,5,51
636,4,8786.999999996624,2,3,13
636,4,3677.9999999998836,4,4,13
225,4,5202.829999994719,2,3,56
225,4,1639.614999992773,4,4,53
225,4,1142.4799999804236,5,5,51
636,4,17605.000000010477,5,5,13
621,4,2736.0449999105185,2,3,56
621,4,1565.0750000495464,4,4,53
621,4,657.839999999851,5,5,51
439,4,9625.99999998929,2,3,56
439,4,7801.000000006752,4,4,53
141,4,11611.000000004424,2,3,56
141,4,5689.9999999732245,4,4,53
439,4,8751.99999997858,5,5,51
141,4,3744.9999999953434,5,5,56
9,4,29883.54499998968,2,3,56
9,4,2672.6999999955297,4,4,53
9,4,1683.0799999879673,5,5,51
76,4,2285.18500001519,2,3,56
76,4,1831.609999993816,4,4,53
591,4,5226.265000062995,2,3,56
591,4,1123.5849999357015,4,4,53
76,4,2461.3249999820255,5,5,51
591,4,1190.8450000919402,5,5,51
106,4,4597.515000030398,2,3,56
106,4,2456.590000074357,4,4,53
106,4,1997.7500000968575,5,5,51
190,4,8675.000000279397,2,3,56
406,4,2566.9999999227002,2,3,56
190,4,2831.99999993667,4,4,53
406,4,1905.9999999590218,4,4,53
406,4,1837.9999999888241,5,5,51
190,4,2210.0000004284084,5,5,51
546,4,2373.0000000214204,2,3,56
546,4,2204.9999999580905,4,4,53
546,4,1905.9999999590218,5,5,51
445,4,1425.9999999776483,2,3,56
445,4,1484.0000001713634,4,4,53
445,4,1707.9999996349216,5,5,51
10,4,3351.039999999557,2,3,56
10,4,2016.750000000684,4,4,53
10,4,1532.7950000009878,5,5,51
573,4,2676,2,3,51
573,4,2168,4,4,53
163,4,2213.8799999956973,2,3,56
573,4,1310,5,5,51
163,4,861.2900000007357,4,4,53
163,4,1102.6399999973364,5,5,51
263,2,13226.109999999608,2,3,13
359,4,11746.76500000013,2,3,56
359,4,1650.9000000001397,4,4,53
331,2,3991.0000000090804,2,3,56
331,2,3153.999999980442,4,4,51
331,2,2717.9999999934807,5,5,51
263,2,47633.17499999903,4,4,53
263,2,2512.1600000020408,5,5,51
359,4,31833.75500000012,5,5,51
401,2,9770.350000006147,2,3,56
401,2,1489.3950000405312,4,4,53
401,2,1880.159999942407,5,5,51
40,2,3415,2,3,56
40,2,1355,4,4,53
40,2,1000,5,5,51
397,2,6106.305000000022,2,3,56
397,2,3095.405000000028,4,4,53
397,2,1183.880000000041,5,5,51
100,2,10043.999999994412,2,3,56
100,2,2000.9999999310821,4,4,53
100,2,1459.000000031665,5,5,51
435,2,30223.99999992922,2,3,13
435,2,6148.999999975786,4,4,54
435,2,721.9999998342246,5,5,53
23,2,2087.344999948982,2,3,56
23,2,1515.9449999919161,4,4,53
23,2,1258.2600000314415,5,5,51
210,2,2478.7300000000414,2,3,56
210,2,1246.9150000001737,4,4,53
210,2,1308.469999999943,5,5,51
453,2,2117.804999987129,2,3,56
714,2,16595.99000000162,2,3,56
453,2,1116.8950000137556,4,4,53
453,2,1208.1899999757297,5,5,51
714,2,7085.709999999381,4,4,53
714,2,4694.925000003423,5,5,51
236,2,8009.0649999983725,2,3,56
236,2,1561.3200000007055,4,4,53
236,2,1475.2650000009453,5,5,51
218,2,1639.0649999957532,2,3,56
218,2,1457.6000000088243,4,4,53
218,2,1414.3199999962235,5,5,51
258,2,4226.9999999552965,2,3,13
258,2,1847.0000000670552,4,4,13
258,2,166.00000020116568,5,5,13
110,2,7073.000000003958,2,3,56
110,2,4661.999999982072,4,4,53
110,2,4078.9999999979045,5,5,56
254,2,26164.714999991702,2,3,56
254,2,501.7750000115484,4,4,56
254,2,203.13999999780208,5,5,56
231,2,7585.719999857247,2,3,56
231,2,6194.519999902695,4,4,53
231,2,4605.824999976903,5,5,51
705,2,2698.7149999986286,2,3,56
705,2,1479.0649999995367,4,4,53
705,2,1550.4949999995006,5,5,51
269,2,2223.3350000001374,2,3,56
269,2,1574.4600000000464,4,4,53
269,2,1473.74500000001,5,5,51
285,2,29041.245000000345,2,3,13
285,2,2709.8450000048615,4,4,13
285,2,959.3599999934668,5,5,13
172,2,1632.2050000017043,2,3,56
172,2,1391.105000002426,4,4,53
172,2,1862.0850000006612,5,5,51
138,2,40393.00000004005,2,3,56
138,2,802.0000000251457,4,4,56
138,2,2632.0000000996515,5,5,56
44,2,14444.2899999558,2,3,56
44,2,2564.249999995809,4,4,53
44,2,3541.4999999920838,5,5,51
17,2,2645.9999999497086,2,3,13
17,2,1768.0000000400469,4,4,13
32,2,12103.540000040084,2,3,56
17,2,1837.9999999888241,5,5,13
67,2,3891.2400000263005,2,3,51
67,2,1023.6750000040047,4,4,50
67,2,1903.2049999805167,5,5,56
32,2,21090.770000126213,4,4,53
32,2,2917.169999796897,5,5,51
457,2,11815.000000002328,2,3,13
178,2,5612.999999983003,2,3,56
457,2,4316.999999980908,4,4,53
457,2,396.99999999720603,5,5,13
178,2,3353.000000002794,4,4,53
178,2,2521.0000000079162,5,5,51
467,2,8464.835000006133,2,3,56
467,2,1499.9499999976251,4,4,53
467,2,1307.7000000048429,5,5,51
590,2,5423.494999995455,2,3,56
590,2,1917.8600000450388,4,4,53
590,2,1973.6099999863654,5,5,51
736,2,2151,2,3,56
736,2,4146,4,4,53
736,2,1365,5,5,51
102,2,1975.0000000931323,2,3,56
102,2,1361.0000000335276,4,4,53
102,2,846.0000001359731,5,5,51
149,2,9211.47499998915,2,3,56
149,2,1865.9750000224449,4,4,53
149,2,1327.194999990752,5,5,51
492,2,9118.619999993825,2,3,56
492,2,1933.5900000005495,4,4,53
492,2,1670.5000000074506,5,5,51
441,2,15234.99999998603,2,3,13
441,2,16896.000000007916,4,4,13
441,2,3873.0000000068685,5,5,51
570,2,3553.999999538064,2,3,56
570,2,1801.9999996758997,4,4,53
608,2,12866.999999852851,2,3,56
570,2,1697.999999858439,5,5,50
608,2,4533.999999985099,4,4,53
608,2,4141.000000061467,5,5,51
60,2,2007.9999999143183,2,3,56
60,2,2013.9999999664724,4,4,53
60,2,1875.9999996982515,5,5,51
8,2,14243.000000016764,2,3,56
8,2,2853.0000001192093,4,4,53
8,2,5177.000000141561,5,5,51
562,2,4441.494999977294,2,3,56
562,2,2793.100000009872,4,4,53
562,2,1488.9649999677204,5,5,51
512,2,9563.999999999825,2,3,56
512,2,1517.0000000000582,4,4,53
512,2,1326,5,5,51
310,2,4336.559999966994,2,3,56
310,2,1847.4649999989197,4,4,53
310,2,1189.0399999683723,5,5,51
19,2,10607.99999954179,2,3,56
19,2,3743.999999947846,4,4,54
19,2,7807.999999728054,5,5,56
599,0,27280.0000000002,2,3,56
599,0,4389.000000000124,4,4,53
599,0,1648.9999999998981,5,5,51
232,0,1655,2,3,56
232,0,1631,4,4,53
232,0,1582,5,5,51
118,0,3377.739999908954,2,3,56
118,0,3256.3950000330806,4,4,53
118,0,2571.3550000218675,5,5,51
722,0,16292.000000365078,2,3,56
722,0,2132.9999999143183,4,4,53
722,0,1725.0000000931323,5,5,51
296,2,12957.999999984168,2,3,56
296,2,1759.539999999106,4,4,53
296,2,1136.8399999919347,5,5,51
349,0,6086.984999943525,2,3,56
349,0,13393.114999984391,4,4,54
349,0,1934.9400000064634,5,5,56
398,0,5019,2,3,56
398,0,1917,4,4,53
398,0,2685,5,5,51
169,0,13467.000000178814,2,3,56
169,0,2665.9999997355044,4,4,53
169,0,2564.9999999441206,5,5,51
16,0,12290.760000003502,2,3,56
16,0,153.019999852404,4,4,56
16,0,2725.7699999026954,5,5,53
395,0,17444.61499992758,2,3,56
395,0,3675.224999897182,4,4,56
395,0,2937.7299998886883,5,5,51
334,0,69254.00000007357,2,3,56
334,0,2703.000000095926,4,4,53
334,0,1966.0000000149012,5,5,51
214,0,4973.984999931417,2,3,56
214,0,2613.1850000238046,4,4,53
214,0,2700.414999970235,5,5,51
411,0,2808.9999998919666,2,3,13
411,0,2035.0000001490116,4,4,13
411,0,1640.9999998286366,5,5,13
548,0,5554.000000003725,2,3,13
548,0,2315.0000000023283,4,4,13
548,0,2936.0000000015134,5,5,13
362,0,19944.999999832362,2,3,56
362,0,9560.00000005588,4,4,13
362,0,27101.000000024214,5,5,13
333,0,11856.000000000226,2,3,56
333,0,1903.9999999999927,4,4,53
333,0,1367.0000000001892,5,5,51
354,0,2592.9999998770654,2,3,56
354,0,2792.0000003650784,4,4,53
354,0,2015.9999998286366,5,5,51
684,0,8324.00000000007,2,3,56
684,0,2104.000000000273,4,4,53
684,0,1599.9999999999054,5,5,51
145,0,2168.5450000222772,2,3,56
145,0,2006.4499999862164,4,4,53
145,0,1815.6900000176392,5,5,51
