"","iterationName","aID","wordSetID","rt","word","button_pressed","response_r","response_g","response_b","response_munsell","trial_type","trial_index","time_elapsed","condition","sliderResponse"
"1","full_sample","39PAAFCODM0MIBRLX0IX50HNG2LTV4",0,2778.37499999441,"red",44,216,65,0,"10R5/16","color-picker",8,28324,"catch_trial_color_trials",NA
"2","full_sample","39PAAFCODM0MIBRLX0IX50HNG2LTV4",0,1846.85999993235,"green",14,184,216,68,"5GY8/10","color-picker",9,30674,"color_trial",NA
"3","full_sample","39PAAFCODM0MIBRLX0IX50HNG2LTV4",0,1091.17999998853,"yellow",2,238,234,140,"10Y9/6","color-picker",10,32269,"color_trial",NA
"4","full_sample","39PAAFCODM0MIBRLX0IX50HNG2LTV4",0,2037.62499988079,"blue",72,0,79,142,"10B3/10","color-picker",11,34810,"catch_trial_color_trials",NA
"5","full_sample","39PAAFCODM0MIBRLX0IX50HNG2LTV4",0,1936.66499992833,"pink",31,238,151,162,"10RP7/8","color-picker",12,37250,"color_trial",NA
"6","full_sample","39PAAFCODM0MIBRLX0IX50HNG2LTV4",0,1617.13999998756,"orange",34,231,111,0,"5YR6/14","color-picker",13,39369,"color_trial",NA
"7","full_sample","39PAAFCODM0MIBRLX0IX50HNG2LTV4",0,2124.29499998689,"purple",74,118,39,110,"10P3/10","color-picker",14,41996,"color_trial",NA
"8","full_sample","39PAAFCODM0MIBRLX0IX50HNG2LTV4",0,4057.71500011906,"sadness",18,173,204,247,"5PB8/6","color-picker",16,47962,"block1_target_trial",NA
"9","full_sample","39PAAFCODM0MIBRLX0IX50HNG2LTV4",0,2500.53500011563,"pheasant",13,252,190,0,"5Y8/14","color-picker",17,50966,"block1_target_trial",NA
"10","full_sample","39PAAFCODM0MIBRLX0IX50HNG2LTV4",0,1781.77500003949,"barley",26,64,196,164,"10G7/8","color-picker",18,53249,"block1_target_trial",NA
"11","full_sample","39PAAFCODM0MIBRLX0IX50HNG2LTV4",0,2177.30999994092,"appearance",0,245,225,219,"10R9/2","color-picker",19,55932,"block1_target_trial",NA
"12","full_sample","39PAAFCODM0MIBRLX0IX50HNG2LTV4",0,1508.21499992162,"sun",13,252,190,0,"5Y8/14","color-picker",20,57943,"block1_target_trial",NA
"13","full_sample","39PAAFCODM0MIBRLX0IX50HNG2LTV4",0,1984.50500005856,"rose",33,239,107,106,"5R6/12","color-picker",21,60431,"block1_target_trial",NA
"14","full_sample","39PAAFCODM0MIBRLX0IX50HNG2LTV4",0,1752.79500009492,"bone",0,245,225,219,"10R9/2","color-picker",22,62689,"block1_target_trial",NA
"15","full_sample","39PAAFCODM0MIBRLX0IX50HNG2LTV4",0,1708.42500007711,"fish",28,99,185,228,"10B7/8","color-picker",23,64900,"block1_target_trial",NA
"16","full_sample","39PAAFCODM0MIBRLX0IX50HNG2LTV4",0,1497.19000002369,"rock",43,163,162,162,"N6","color-picker",24,66900,"block1_target_trial",NA
"17","full_sample","39PAAFCODM0MIBRLX0IX50HNG2LTV4",0,1700.5600000266,"playfulness",42,226,110,159,"5RP6/12","color-picker",25,69103,"block1_target_trial",NA
"18","full_sample","36DSNE9QZ5YXEOMJKUIF8206M7XOJS",0,5951.32500003092,"green",47,54,142,15,"10GY5/12","color-picker",8,46185,"color_trial",NA
"19","full_sample","39PAAFCODM0MIBRLX0IX50HNG2LTV4",0,1768.70999997482,"excitement",23,244,150,0,"10YR7/14","color-picker",26,71375,"block1_target_trial",NA
"20","full_sample","39PAAFCODM0MIBRLX0IX50HNG2LTV4",0,1503.57499998063,"shampoo",50,0,146,196,"10B5/12","color-picker",27,73381,"block1_target_trial",NA
"21","full_sample","36DSNE9QZ5YXEOMJKUIF8206M7XOJS",0,3698.36999999825,"orange",23,244,150,0,"10YR7/14","color-picker",9,50390,"color_trial",NA
"22","full_sample","39PAAFCODM0MIBRLX0IX50HNG2LTV4",0,1406.62499982864,"chalk",0,245,225,219,"10R9/2","color-picker",28,75291,"block1_target_trial",NA
"23","full_sample","39PAAFCODM0MIBRLX0IX50HNG2LTV4",0,4527.69499993883,"divinity",63,132,71,157,"5P4/12","color-picker",29,80321,"block1_target_trial",NA
"24","full_sample","39PAAFCODM0MIBRLX0IX50HNG2LTV4",0,2400.27999994345,"loyal",51,124,112,186,"10PB5/10","color-picker",30,83225,"block1_target_trial",NA
"25","full_sample","39PAAFCODM0MIBRLX0IX50HNG2LTV4",0,2255.87500003166,"optimism",13,252,190,0,"5Y8/14","color-picker",31,85983,"block1_target_trial",NA
"26","full_sample","39PAAFCODM0MIBRLX0IX50HNG2LTV4",0,1632.65000004321,"urge",49,0,147,152,"10BG5/10","color-picker",32,88119,"block1_target_trial",NA
"27","full_sample","39PAAFCODM0MIBRLX0IX50HNG2LTV4",0,1462.62499992736,"lemon",2,238,234,140,"10Y9/6","color-picker",33,90085,"block1_target_trial",NA
"28","full_sample","39PAAFCODM0MIBRLX0IX50HNG2LTV4",0,2033.26499997638,"robin",44,216,65,0,"10R5/16","color-picker",34,92621,"block1_target_trial",NA
"29","full_sample","39PAAFCODM0MIBRLX0IX50HNG2LTV4",0,2501.86499999836,"pain",80,46,52,38,"5GY2/2","color-picker",35,95626,"block1_target_trial",NA
"30","full_sample","39PAAFCODM0MIBRLX0IX50HNG2LTV4",0,1970.54999996908,"ache",66,137,34,17,"10R3/10","color-picker",36,98099,"block1_target_trial",NA
"31","full_sample","39PAAFCODM0MIBRLX0IX50HNG2LTV4",0,1399.32499988936,"desire",44,216,65,0,"10R5/16","color-picker",37,100001,"block1_target_trial",NA
"32","full_sample","39PAAFCODM0MIBRLX0IX50HNG2LTV4",0,1847.145000007,"faith",13,252,190,0,"5Y8/14","color-picker",38,102351,"block1_target_trial",NA
"33","full_sample","39PAAFCODM0MIBRLX0IX50HNG2LTV4",0,1811.09999981709,"success",63,132,71,157,"5P4/12","color-picker",39,104665,"block1_target_trial",NA
"34","full_sample","39PAAFCODM0MIBRLX0IX50HNG2LTV4",0,1208.54999986477,"romance",44,216,65,0,"10R5/16","color-picker",40,106377,"block1_target_trial",NA
"35","full_sample","36DSNE9QZ5YXEOMJKUIF8206M7XOJS",0,31369.2299999529,"purple",0,245,225,219,"10R9/2","color-picker",10,82271,"color_trial",NA
"36","full_sample","39PAAFCODM0MIBRLX0IX50HNG2LTV4",0,2614.5550000947,"corpse",87,59,58,58,"N2","color-picker",41,109494,"block1_target_trial",NA
"37","full_sample","39PAAFCODM0MIBRLX0IX50HNG2LTV4",0,1663.59000001103,"temptation",44,216,65,0,"10R5/16","color-picker",42,111661,"block1_target_trial",NA
"38","full_sample","39PAAFCODM0MIBRLX0IX50HNG2LTV4",0,1519.51000001281,"staple",48,0,149,112,"10G5/10","color-picker",43,113684,"block1_target_trial",NA
"39","full_sample","36DSNE9QZ5YXEOMJKUIF8206M7XOJS",0,7434.505000012,"red",44,216,65,0,"10R5/16","color-picker",11,90211,"catch_trial_color_trials",NA
"40","full_sample","39PAAFCODM0MIBRLX0IX50HNG2LTV4",0,1284.52999982983,"energy",24,203,172,0,"10Y7/12","color-picker",44,115471,"block1_target_trial",NA
"41","full_sample","39PAAFCODM0MIBRLX0IX50HNG2LTV4",0,1776.50499995798,"relief",23,244,150,0,"10YR7/14","color-picker",45,117750,"block1_target_trial",NA
"42","full_sample","39PAAFCODM0MIBRLX0IX50HNG2LTV4",0,1575.05999994464,"fork",87,59,58,58,"N2","color-picker",46,119829,"block1_target_trial",NA
"43","full_sample","36DSNE9QZ5YXEOMJKUIF8206M7XOJS",0,5150.335000013,"blue",72,0,79,142,"10B3/10","color-picker",12,95870,"catch_trial_color_trials",NA
"44","full_sample","39PAAFCODM0MIBRLX0IX50HNG2LTV4",0,2058.93000005744,"heroism",63,132,71,157,"5P4/12","color-picker",47,122390,"block1_target_trial",NA
"45","full_sample","39PAAFCODM0MIBRLX0IX50HNG2LTV4",0,1439.83000004664,"gloom",18,173,204,247,"5PB8/6","color-picker",48,124333,"block1_target_trial",NA
"46","full_sample","36DSNE9QZ5YXEOMJKUIF8206M7XOJS",0,4942.50000000466,"yellow",13,252,190,0,"5Y8/14","color-picker",13,101319,"color_trial",NA
"47","full_sample","39PAAFCODM0MIBRLX0IX50HNG2LTV4",0,2032.62499999255,"boat",50,0,146,196,"10B5/12","color-picker",49,126869,"block1_target_trial",NA
"48","full_sample","36DSNE9QZ5YXEOMJKUIF8206M7XOJS",0,3104.21999997925,"pink",55,190,26,52,"5R4/14","color-picker",14,104929,"color_trial",NA
"49","full_sample","39PAAFCODM0MIBRLX0IX50HNG2LTV4",0,3590.02500004135,"mansion",57,116,95,21,"5Y4/6","color-picker",50,130962,"block1_target_trial",NA
"50","full_sample","39PAAFCODM0MIBRLX0IX50HNG2LTV4",0,2078.73499998823,"toe",11,254,185,179,"5R8/6","color-picker",51,133544,"block1_target_trial",NA
"51","full_sample","39PAAFCODM0MIBRLX0IX50HNG2LTV4",0,1758.55499994941,"computer",76,82,82,81,"N3","color-picker",52,135806,"block1_target_trial",NA
"52","full_sample","39PAAFCODM0MIBRLX0IX50HNG2LTV4",0,1251.46000017412,"blue",62,0,113,178,"5PB4/12","color-picker",53,137561,"block1_catch_trial",NA
"53","full_sample","39PAAFCODM0MIBRLX0IX50HNG2LTV4",0,1522.52999995835,"heaven",50,0,146,196,"10B5/12","color-picker",54,139587,"block1_target_trial",NA
"54","full_sample","39PAAFCODM0MIBRLX0IX50HNG2LTV4",0,1499.00499987416,"tarantula",87,59,58,58,"N2","color-picker",55,141589,"block1_target_trial",NA
"55","full_sample","39PAAFCODM0MIBRLX0IX50HNG2LTV4",0,2273.51999981329,"belt",83,0,63,80,"5B2/6","color-picker",56,144365,"block1_target_trial",NA
"56","full_sample","36DSNE9QZ5YXEOMJKUIF8206M7XOJS",0,21589.1200000187,"faith",47,54,142,15,"10GY5/12","color-picker",16,129632,"block1_target_trial",NA
"57","full_sample","39PAAFCODM0MIBRLX0IX50HNG2LTV4",0,5412.38500014879,"temptation",44,216,65,0,"10R5/16","color-picker",58,155247,"block2_target_trial",NA
"58","full_sample","36DSNE9QZ5YXEOMJKUIF8206M7XOJS",0,3044.45499996655,"success",47,54,142,15,"10GY5/12","color-picker",17,133182,"block1_target_trial",NA
"59","full_sample","39PAAFCODM0MIBRLX0IX50HNG2LTV4",0,1132.17500015162,"romance",44,216,65,0,"10R5/16","color-picker",60,160904,"block2_target_trial",NA
"60","full_sample","3CTOC39K37QQTIUK381DXGEBWINJ7X",0,4756.99500000337,"green",25,103,196,96,"10GY7/10","color-picker",8,149704,"color_trial",NA
"61","full_sample","36DSNE9QZ5YXEOMJKUIF8206M7XOJS",0,6640.28500003042,"sadness",80,46,52,38,"5GY2/2","color-picker",18,140329,"block1_target_trial",NA
"62","full_sample","39PAAFCODM0MIBRLX0IX50HNG2LTV4",0,1243.11999999918,"red",44,216,65,0,"10R5/16","color-picker",62,165087,"block2_catch_trial",NA
"63","full_sample","3CTOC39K37QQTIUK381DXGEBWINJ7X",0,1779.18499999214,"orange",13,252,190,0,"5Y8/14","color-picker",9,152015,"color_trial",NA
"64","full_sample","39PAAFCODM0MIBRLX0IX50HNG2LTV4",0,2276.04499994777,"robin",44,216,65,0,"10R5/16","color-picker",63,167866,"block2_target_trial",NA
"65","full_sample","3CTOC39K37QQTIUK381DXGEBWINJ7X",0,1876.50999997277,"blue",72,0,79,142,"10B3/10","color-picker",10,154398,"catch_trial_color_trials",NA
"66","full_sample","36DSNE9QZ5YXEOMJKUIF8206M7XOJS",0,4246.53999996372,"toe",3,200,241,191,"10GY9/4","color-picker",19,145082,"block1_target_trial",NA
"67","full_sample","3CTOC39K37QQTIUK381DXGEBWINJ7X",0,1708.29500001855,"purple",63,132,71,157,"5P4/12","color-picker",11,156615,"color_trial",NA
"68","full_sample","39PAAFCODM0MIBRLX0IX50HNG2LTV4",0,1432.85999982618,"corpse",87,59,58,58,"N2","color-picker",65,170999,"block2_target_trial",NA
"69","full_sample","3CTOC39K37QQTIUK381DXGEBWINJ7X",0,1897.42499997374,"red",55,190,26,52,"5R4/14","color-picker",12,159031,"catch_trial_color_trials",NA
"70","full_sample","39PAAFCODM0MIBRLX0IX50HNG2LTV4",0,3105.78499990515,"sadness",6,216,232,240,"10B9/2","color-picker",67,175780,"block2_target_trial",NA
"71","full_sample","36DSNE9QZ5YXEOMJKUIF8206M7XOJS",0,6713.4649999789,"corpse",25,103,196,96,"10GY7/10","color-picker",20,152301,"block1_target_trial",NA
"72","full_sample","3CTOC39K37QQTIUK381DXGEBWINJ7X",0,5266.68999996036,"yellow",2,238,234,140,"10Y9/6","color-picker",13,164814,"color_trial",NA
"73","full_sample","3CTOC39K37QQTIUK381DXGEBWINJ7X",0,1454.90499999141,"pink",53,218,64,108,"10RP5/14","color-picker",14,166774,"color_trial",NA
"74","full_sample","36DSNE9QZ5YXEOMJKUIF8206M7XOJS",0,4061.41500000376,"sun",34,231,111,0,"5YR6/14","color-picker",21,156870,"block1_target_trial",NA
"75","full_sample","39PAAFCODM0MIBRLX0IX50HNG2LTV4",0,1502.9649999924,"playfulness",13,252,190,0,"5Y8/14","color-picker",69,181540,"block2_target_trial",NA
"76","full_sample","3MMN5BL1WZ4YT7ZI4TBF0RUCVAWM3Z",0,6862.50500002643,"red",55,190,26,52,"5R4/14","color-picker",8,192922,"catch_trial_color_trials",NA
"77","full_sample","36DSNE9QZ5YXEOMJKUIF8206M7XOJS",0,4935.35499996506,"pheasant",25,103,196,96,"10GY7/10","color-picker",22,162311,"block1_target_trial",NA
"78","full_sample","39PAAFCODM0MIBRLX0IX50HNG2LTV4",0,1889.66000010259,"barley",25,103,196,96,"10GY7/10","color-picker",71,186657,"block2_target_trial",NA
"79","full_sample","3MMN5BL1WZ4YT7ZI4TBF0RUCVAWM3Z",0,2014.54999996349,"yellow",2,238,234,140,"10Y9/6","color-picker",9,195445,"color_trial",NA
"80","full_sample","3MMN5BL1WZ4YT7ZI4TBF0RUCVAWM3Z",0,1374.92999999085,"purple",85,73,31,87,"5P2/8","color-picker",10,197327,"color_trial",NA
"81","full_sample","39PAAFCODM0MIBRLX0IX50HNG2LTV4",0,1511.49500021711,"shampoo",61,0,121,148,"5B4/10","color-picker",73,190165,"block2_target_trial",NA
"82","full_sample","3CTOC39K37QQTIUK381DXGEBWINJ7X",0,3269.18500004103,"playfulness",23,244,150,0,"10YR7/14","color-picker",16,176582,"block1_target_trial",NA
"83","full_sample","3MMN5BL1WZ4YT7ZI4TBF0RUCVAWM3Z",0,1714.02500005206,"orange",34,231,111,0,"5YR6/14","color-picker",11,199547,"color_trial",NA
"84","full_sample","36DSNE9QZ5YXEOMJKUIF8206M7XOJS",0,5304.19499997515,"rose",33,239,107,106,"5R6/12","color-picker",23,168120,"block1_target_trial",NA
"85","full_sample","3CTOC39K37QQTIUK381DXGEBWINJ7X",0,1559.69999998342,"relief",17,158,211,223,"5B8/4","color-picker",17,178646,"block1_target_trial",NA
"86","full_sample","39PAAFCODM0MIBRLX0IX50HNG2LTV4",0,1260.05499996245,"appearance",0,245,225,219,"10R9/2","color-picker",75,193343,"block2_target_trial",NA
"87","full_sample","3MMN5BL1WZ4YT7ZI4TBF0RUCVAWM3Z",0,1653.96000002511,"green",69,32,83,38,"10GY3/6","color-picker",12,201709,"color_trial",NA
"88","full_sample","3MMN5BL1WZ4YT7ZI4TBF0RUCVAWM3Z",0,1166.71499999939,"blue",62,0,113,178,"5PB4/12","color-picker",13,203383,"catch_trial_color_trials",NA
"89","full_sample","3CTOC39K37QQTIUK381DXGEBWINJ7X",0,2911.61499998998,"gloom",78,75,41,23,"5YR2/4","color-picker",18,182070,"block1_target_trial",NA
"90","full_sample","39PAAFCODM0MIBRLX0IX50HNG2LTV4",0,1643.91000010073,"pain",77,99,14,38,"5R2/8","color-picker",77,196691,"block2_target_trial",NA
"91","full_sample","3MMN5BL1WZ4YT7ZI4TBF0RUCVAWM3Z",0,1601.39000002528,"pink",42,226,110,159,"5RP6/12","color-picker",14,205491,"color_trial",NA
"92","full_sample","36DSNE9QZ5YXEOMJKUIF8206M7XOJS",0,6034.59499997552,"energy",23,244,150,0,"10YR7/14","color-picker",24,174659,"block1_target_trial",NA
"93","full_sample","39PAAFCODM0MIBRLX0IX50HNG2LTV4",0,2032.23000001162,"lemon",2,238,234,140,"10Y9/6","color-picker",79,200870,"block2_target_trial",NA
"94","full_sample","3CTOC39K37QQTIUK381DXGEBWINJ7X",0,5023.18999997806,"loyal",55,190,26,52,"5R4/14","color-picker",19,187598,"block1_target_trial",NA
"95","full_sample","36DSNE9QZ5YXEOMJKUIF8206M7XOJS",0,3749.65499999234,"belt",2,238,234,140,"10Y9/6","color-picker",25,178920,"block1_target_trial",NA
"96","full_sample","3KIBXJ1WD5USP8S12FIR9H0J1WXOKR",0,7393.64999999816,"red",44,216,65,0,"10R5/16","color-picker",8,210755,"catch_trial_color_trials",NA
"97","full_sample","39PAAFCODM0MIBRLX0IX50HNG2LTV4",0,1107.7149999328,"chalk",0,245,225,219,"10R9/2","color-picker",81,203971,"block2_target_trial",NA
"98","full_sample","3CTOC39K37QQTIUK381DXGEBWINJ7X",0,1864.09499996807,"blue",50,0,146,196,"10B5/12","color-picker",20,189966,"block1_catch_trial",NA
"99","full_sample","3MMN5BL1WZ4YT7ZI4TBF0RUCVAWM3Z",0,4552.5899999775,"desire",51,124,112,186,"10PB5/10","color-picker",16,212889,"block1_target_trial",NA
"100","full_sample","3CTOC39K37QQTIUK381DXGEBWINJ7X",0,2119.03499998152,"computer",21,202,202,202,"N8","color-picker",21,192590,"block1_target_trial",NA
"101","full_sample","3MMN5BL1WZ4YT7ZI4TBF0RUCVAWM3Z",0,1663.65000000224,"heroism",45,170,103,0,"10YR5/10","color-picker",17,215059,"block1_target_trial",NA
"102","full_sample","3KIBXJ1WD5USP8S12FIR9H0J1WXOKR",0,3363.28000000503,"orange",34,231,111,0,"5YR6/14","color-picker",9,214625,"color_trial",NA
"103","full_sample","39PAAFCODM0MIBRLX0IX50HNG2LTV4",0,1830.29499999247,"optimism",13,252,190,0,"5Y8/14","color-picker",83,207475,"block2_target_trial",NA
"104","full_sample","3MMN5BL1WZ4YT7ZI4TBF0RUCVAWM3Z",0,1326.84499997413,"ache",55,190,26,52,"5R4/14","color-picker",18,216893,"block1_target_trial",NA
"105","full_sample","3CTOC39K37QQTIUK381DXGEBWINJ7X",0,1718.7649999978,"rose",55,190,26,52,"5R4/14","color-picker",22,194814,"block1_target_trial",NA
"106","full_sample","3KIBXJ1WD5USP8S12FIR9H0J1WXOKR",0,1961.17499998945,"green",47,54,142,15,"10GY5/12","color-picker",10,217092,"color_trial",NA
"107","full_sample","36DSNE9QZ5YXEOMJKUIF8206M7XOJS",0,6200.63999999547,"romance",72,0,79,142,"10B3/10","color-picker",26,185632,"block1_target_trial",NA
"108","full_sample","3MMN5BL1WZ4YT7ZI4TBF0RUCVAWM3Z",0,1816.3100000238,"robin",47,54,142,15,"10GY5/12","color-picker",19,219217,"block1_target_trial",NA
"109","full_sample","39PAAFCODM0MIBRLX0IX50HNG2LTV4",0,2377.0600000862,"heaven",29,173,169,229,"10PB7/8","color-picker",85,211641,"block2_target_trial",NA
"110","full_sample","3CTOC39K37QQTIUK381DXGEBWINJ7X",0,2928.2200000016,"mansion",12,255,186,123,"5YR8/8","color-picker",23,198246,"block1_target_trial",NA
"111","full_sample","3MMN5BL1WZ4YT7ZI4TBF0RUCVAWM3Z",0,1326.71499997377,"pain",55,190,26,52,"5R4/14","color-picker",20,221051,"block1_target_trial",NA
"112","full_sample","3KIBXJ1WD5USP8S12FIR9H0J1WXOKR",0,3448.04499999736,"yellow",13,252,190,0,"5Y8/14","color-picker",11,221046,"color_trial",NA
"113","full_sample","36DSNE9QZ5YXEOMJKUIF8206M7XOJS",0,4484.13499997696,"tarantula",24,203,172,0,"10Y7/12","color-picker",27,190622,"block1_target_trial",NA
"114","full_sample","3CTOC39K37QQTIUK381DXGEBWINJ7X",0,2064.63500001701,"toe",78,75,41,23,"5YR2/4","color-picker",24,200815,"block1_target_trial",NA
"115","full_sample","3MMN5BL1WZ4YT7ZI4TBF0RUCVAWM3Z",0,1888.5499999742,"chalk",10,233,232,231,"N9","color-picker",21,223447,"block1_target_trial",NA
"116","full_sample","39PAAFCODM0MIBRLX0IX50HNG2LTV4",0,1749.33000002056,"ache",45,170,103,0,"10YR5/10","color-picker",87,215645,"block2_target_trial",NA
"117","full_sample","3KIBXJ1WD5USP8S12FIR9H0J1WXOKR",0,2712.32999999484,"pink",53,218,64,108,"10RP5/14","color-picker",12,224264,"color_trial",NA
"118","full_sample","3CTOC39K37QQTIUK381DXGEBWINJ7X",0,1550.0100000063,"chalk",41,170,136,191,"5P6/8","color-picker",25,202878,"block1_target_trial",NA
"119","full_sample","3MMN5BL1WZ4YT7ZI4TBF0RUCVAWM3Z",0,1465.43500002008,"playfulness",25,103,196,96,"10GY7/10","color-picker",22,225417,"block1_target_trial",NA
"120","full_sample","39PAAFCODM0MIBRLX0IX50HNG2LTV4",0,1672.04499989748,"excitement",44,216,65,0,"10R5/16","color-picker",89,219703,"block2_target_trial",NA
"121","full_sample","3MMN5BL1WZ4YT7ZI4TBF0RUCVAWM3Z",0,1903.99500000058,"pheasant",46,141,120,0,"10Y5/8","color-picker",23,227827,"block1_target_trial",NA
"122","full_sample","3CTOC39K37QQTIUK381DXGEBWINJ7X",0,2095.48999997787,"fork",65,107,108,107,"N4","color-picker",26,205491,"block1_target_trial",NA
"123","full_sample","3KIBXJ1WD5USP8S12FIR9H0J1WXOKR",0,4735.65000000235,"purple",73,79,58,135,"10PB3/10","color-picker",13,229504,"color_trial",NA
"124","full_sample","3CTOC39K37QQTIUK381DXGEBWINJ7X",0,1858.86999999639,"staple",87,59,58,58,"N2","color-picker",27,207870,"block1_target_trial",NA
"125","full_sample","3MMN5BL1WZ4YT7ZI4TBF0RUCVAWM3Z",0,2265.65000001574,"bone",10,233,232,231,"N9","color-picker",24,230599,"block1_target_trial",NA
"126","full_sample","36DSNE9QZ5YXEOMJKUIF8206M7XOJS",0,7713.49999995437,"mansion",13,252,190,0,"5Y8/14","color-picker",28,198842,"block1_target_trial",NA
"127","full_sample","39PAAFCODM0MIBRLX0IX50HNG2LTV4",0,1337.65999996103,"fork",87,59,58,58,"N2","color-picker",91,223388,"block2_target_trial",NA
"128","full_sample","3KIBXJ1WD5USP8S12FIR9H0J1WXOKR",0,2147.20500000112,"blue",72,0,79,142,"10B3/10","color-picker",14,232156,"catch_trial_color_trials",NA
"129","full_sample","3MMN5BL1WZ4YT7ZI4TBF0RUCVAWM3Z",0,1959.84500000486,"faith",50,0,146,196,"10B5/12","color-picker",25,233067,"block1_target_trial",NA
"130","full_sample","3CTOC39K37QQTIUK381DXGEBWINJ7X",0,2631.98000000557,"desire",40,96,151,219,"5PB6/10","color-picker",28,211006,"block1_target_trial",NA
"131","full_sample","3MMN5BL1WZ4YT7ZI4TBF0RUCVAWM3Z",0,1207.04000000842,"rose",33,239,107,106,"5R6/12","color-picker",26,234781,"block1_target_trial",NA
"132","full_sample","39PAAFCODM0MIBRLX0IX50HNG2LTV4",0,1288.9149999246,"mansion",57,116,95,21,"5Y4/6","color-picker",93,226775,"block2_target_trial",NA
"133","full_sample","3MMN5BL1WZ4YT7ZI4TBF0RUCVAWM3Z",0,1247.2500000149,"lemon",2,238,234,140,"10Y9/6","color-picker",27,236535,"block1_target_trial",NA
"134","full_sample","3CTOC39K37QQTIUK381DXGEBWINJ7X",0,3063.90999996802,"pheasant",72,0,79,142,"10B3/10","color-picker",29,214574,"block1_target_trial",NA
"135","full_sample","36DSNE9QZ5YXEOMJKUIF8206M7XOJS",0,6218.69500004686,"lemon",13,252,190,0,"5Y8/14","color-picker",29,205566,"block1_target_trial",NA
"136","full_sample","3CTOC39K37QQTIUK381DXGEBWINJ7X",0,2614.91000000387,"temptation",77,99,14,38,"5R2/8","color-picker",30,217702,"block1_target_trial",NA
"137","full_sample","36DSNE9QZ5YXEOMJKUIF8206M7XOJS",0,2848.04999997141,"divinity",15,135,220,178,"5G8/6","color-picker",30,208920,"block1_target_trial",NA
"138","full_sample","3KIBXJ1WD5USP8S12FIR9H0J1WXOKR",0,6818.02999999491,"relief",13,252,190,0,"5Y8/14","color-picker",16,241149,"block1_target_trial",NA
"139","full_sample","3MMN5BL1WZ4YT7ZI4TBF0RUCVAWM3Z",0,6630.52500004414,"sadness",72,0,79,142,"10B3/10","color-picker",28,243673,"block1_target_trial",NA
"140","full_sample","3KIBXJ1WD5USP8S12FIR9H0J1WXOKR",0,2011.58999999461,"barley",47,54,142,15,"10GY5/12","color-picker",17,243669,"block1_target_trial",NA
"141","full_sample","3CTOC39K37QQTIUK381DXGEBWINJ7X",0,3663.31999999238,"heroism",27,29,194,202,"10BG7/8","color-picker",31,221870,"block1_target_trial",NA
"142","full_sample","3MMN5BL1WZ4YT7ZI4TBF0RUCVAWM3Z",0,1481.86499997973,"computer",37,29,171,113,"5G6/10","color-picker",29,245661,"block1_target_trial",NA
"143","full_sample","3CTOC39K37QQTIUK381DXGEBWINJ7X",0,2237.58500005351,"robin",22,254,147,109,"10R7/10","color-picker",32,224622,"block1_target_trial",NA
"144","full_sample","3KIBXJ1WD5USP8S12FIR9H0J1WXOKR",0,2564.2200000002,"divinity",63,132,71,157,"5P4/12","color-picker",18,246737,"block1_target_trial",NA
"145","full_sample","3MMN5BL1WZ4YT7ZI4TBF0RUCVAWM3Z",0,1501.12999998964,"heaven",2,238,234,140,"10Y9/6","color-picker",30,247671,"block1_target_trial",NA
"146","full_sample","36DSNE9QZ5YXEOMJKUIF8206M7XOJS",0,6633.58500000322,"heaven",5,205,236,235,"10BG9/2","color-picker",31,216060,"block1_target_trial",NA
"147","full_sample","3CTOC39K37QQTIUK381DXGEBWINJ7X",0,1704.28000000538,"divinity",42,226,110,159,"5RP6/12","color-picker",33,226830,"block1_target_trial",NA
"148","full_sample","3MMN5BL1WZ4YT7ZI4TBF0RUCVAWM3Z",0,1379.39000001643,"success",2,238,234,140,"10Y9/6","color-picker",31,249553,"block1_target_trial",NA
"149","full_sample","39PAAFCODM0MIBRLX0IX50HNG2LTV4",0,13135.5500000063,"computer",87,59,58,58,"N2","color-picker",95,242220,"block2_target_trial",NA
"150","full_sample","3KIBXJ1WD5USP8S12FIR9H0J1WXOKR",0,3278.23999999964,"fish",21,202,202,202,"N8","color-picker",19,250521,"block1_target_trial",NA
"151","full_sample","3MMN5BL1WZ4YT7ZI4TBF0RUCVAWM3Z",0,1497.85500002326,"staple",10,233,232,231,"N9","color-picker",32,251557,"block1_target_trial",NA
"152","full_sample","36DSNE9QZ5YXEOMJKUIF8206M7XOJS",0,2734.59499998717,"chalk",1,255,225,176,"10YR9/4","color-picker",32,219300,"block1_target_trial",NA
"153","full_sample","3CTOC39K37QQTIUK381DXGEBWINJ7X",0,2268.44000001438,"romance",55,190,26,52,"5R4/14","color-picker",34,229606,"block1_target_trial",NA
"154","full_sample","3MMN5BL1WZ4YT7ZI4TBF0RUCVAWM3Z",0,2334.4700000016,"belt",87,59,58,58,"N2","color-picker",33,254399,"block1_target_trial",NA
"155","full_sample","3KIBXJ1WD5USP8S12FIR9H0J1WXOKR",0,3017.76000000245,"rock",43,163,162,162,"N6","color-picker",20,254043,"block1_target_trial",NA
"156","full_sample","3CTOC39K37QQTIUK381DXGEBWINJ7X",0,2144.29500000551,"boat",18,173,204,247,"5PB8/6","color-picker",35,232254,"block1_target_trial",NA
"157","full_sample","39PAAFCODM0MIBRLX0IX50HNG2LTV4",0,2890.84999985062,"urge",49,0,147,152,"10BG5/10","color-picker",97,247142,"block2_target_trial",NA
"158","full_sample","36DSNE9QZ5YXEOMJKUIF8206M7XOJS",0,3305.45500002336,"rock",47,54,142,15,"10GY5/12","color-picker",33,223110,"block1_target_trial",NA
"159","full_sample","3MMN5BL1WZ4YT7ZI4TBF0RUCVAWM3Z",0,2514.3949999474,"mansion",64,169,50,112,"5RP4/12","color-picker",34,257419,"block1_target_trial",NA
"160","full_sample","3CTOC39K37QQTIUK381DXGEBWINJ7X",0,2503.22499999311,"optimism",47,54,142,15,"10GY5/12","color-picker",36,235262,"block1_target_trial",NA
"161","full_sample","39PAAFCODM0MIBRLX0IX50HNG2LTV4",0,1461.06999996118,"desire",44,216,65,0,"10R5/16","color-picker",99,250933,"block2_target_trial",NA
"162","full_sample","3MMN5BL1WZ4YT7ZI4TBF0RUCVAWM3Z",0,1550.44500000076,"fork",54,136,137,135,"N5","color-picker",35,259479,"block1_target_trial",NA
"163","full_sample","36DSNE9QZ5YXEOMJKUIF8206M7XOJS",0,4274.06499994686,"playfulness",47,54,142,15,"10GY5/12","color-picker",34,227889,"block1_target_trial",NA
"164","full_sample","3KIBXJ1WD5USP8S12FIR9H0J1WXOKR",0,5312.7999999997,"mansion",74,118,39,110,"10P3/10","color-picker",21,259863,"block1_target_trial",NA
"165","full_sample","3MMN5BL1WZ4YT7ZI4TBF0RUCVAWM3Z",0,2088.48999999464,"urge",33,239,107,106,"5R6/12","color-picker",36,262075,"block1_target_trial",NA
"166","full_sample","36DSNE9QZ5YXEOMJKUIF8206M7XOJS",0,2343.69000000879,"bone",13,252,190,0,"5Y8/14","color-picker",35,230739,"block1_target_trial",NA
"167","full_sample","3CTOC39K37QQTIUK381DXGEBWINJ7X",0,5656.0050000553,"tarantula",58,93,100,0,"5GY4/8","color-picker",37,241426,"block1_target_trial",NA
"168","full_sample","3MMN5BL1WZ4YT7ZI4TBF0RUCVAWM3Z",0,1406.14000003552,"divinity",63,132,71,157,"5P4/12","color-picker",37,263989,"block1_target_trial",NA
"169","full_sample","3KIBXJ1WD5USP8S12FIR9H0J1WXOKR",0,4178.33500000415,"computer",87,59,58,58,"N2","color-picker",22,264547,"block1_target_trial",NA
"170","full_sample","39PAAFCODM0MIBRLX0IX50HNG2LTV4",0,4324.38999996521,"gloom",28,99,185,228,"10B7/8","color-picker",101,257145,"block2_target_trial",NA
"171","full_sample","36DSNE9QZ5YXEOMJKUIF8206M7XOJS",0,1713.92000000924,"robin",14,184,216,68,"5GY8/10","color-picker",36,232959,"block1_target_trial",NA
"172","full_sample","3MMN5BL1WZ4YT7ZI4TBF0RUCVAWM3Z",0,1440.25499996496,"optimism",2,238,234,140,"10Y9/6","color-picker",38,265935,"block1_target_trial",NA
"173","full_sample","3CTOC39K37QQTIUK381DXGEBWINJ7X",0,1747.36500001745,"sun",2,238,234,140,"10Y9/6","color-picker",38,243678,"block1_target_trial",NA
"174","full_sample","36DSNE9QZ5YXEOMJKUIF8206M7XOJS",0,2523.67000002414,"staple",2,238,234,140,"10Y9/6","color-picker",37,235990,"block1_target_trial",NA
"175","full_sample","3MMN5BL1WZ4YT7ZI4TBF0RUCVAWM3Z",0,1927.62499995297,"fish",49,0,147,152,"10BG5/10","color-picker",39,268371,"block1_target_trial",NA
"176","full_sample","39PAAFCODM0MIBRLX0IX50HNG2LTV4",0,1112.72000009194,"toe",0,245,225,219,"10R9/2","color-picker",103,260306,"block2_target_trial",NA
"177","full_sample","3KIBXJ1WD5USP8S12FIR9H0J1WXOKR",0,3366.21000000741,"heaven",28,99,185,228,"10B7/8","color-picker",23,268418,"block1_target_trial",NA
"178","full_sample","3CTOC39K37QQTIUK381DXGEBWINJ7X",0,2680.9999999823,"faith",85,73,31,87,"5P2/8","color-picker",39,246861,"block1_target_trial",NA
"179","full_sample","3MMN5BL1WZ4YT7ZI4TBF0RUCVAWM3Z",0,1598.78499998013,"boat",79,56,49,32,"5Y2/2","color-picker",40,270477,"block1_target_trial",NA
"180","full_sample","36DSNE9QZ5YXEOMJKUIF8206M7XOJS",0,1903.5000000149,"temptation",26,64,196,164,"10G7/8","color-picker",38,238398,"block1_target_trial",NA
"181","full_sample","39PAAFCODM0MIBRLX0IX50HNG2LTV4",0,1388.98500008509,"tarantula",87,59,58,58,"N2","color-picker",105,263671,"block2_target_trial",NA
"182","full_sample","3CTOC39K37QQTIUK381DXGEBWINJ7X",0,2208.89499998884,"urge",75,139,23,66,"10RP3/10","color-picker",40,249573,"block1_target_trial",NA
"183","full_sample","3KIBXJ1WD5USP8S12FIR9H0J1WXOKR",0,2869.6299999865,"sun",13,252,190,0,"5Y8/14","color-picker",24,271792,"block1_target_trial",NA
"184","full_sample","3MMN5BL1WZ4YT7ZI4TBF0RUCVAWM3Z",0,1413.55999995722,"excitement",24,203,172,0,"10Y7/12","color-picker",41,272399,"block1_target_trial",NA
"185","full_sample","36DSNE9QZ5YXEOMJKUIF8206M7XOJS",0,2515.17000002787,"shampoo",26,64,196,164,"10G7/8","color-picker",39,241418,"block1_target_trial",NA
"186","full_sample","3MMN5BL1WZ4YT7ZI4TBF0RUCVAWM3Z",0,1921.48499999894,"toe",64,169,50,112,"5RP4/12","color-picker",42,274827,"block1_target_trial",NA
"187","full_sample","39PAAFCODM0MIBRLX0IX50HNG2LTV4",0,1405.58500005864,"rock",54,136,137,135,"N5","color-picker",107,266984,"block2_target_trial",NA
"188","full_sample","3KIBXJ1WD5USP8S12FIR9H0J1WXOKR",0,2716.91000000283,"robin",44,216,65,0,"10R5/16","color-picker",25,275015,"block1_target_trial",NA
"189","full_sample","3CTOC39K37QQTIUK381DXGEBWINJ7X",0,3424.00500003714,"ache",80,46,52,38,"5GY2/2","color-picker",41,253501,"block1_target_trial",NA
"190","full_sample","36DSNE9QZ5YXEOMJKUIF8206M7XOJS",0,1645.69999999367,"gloom",15,135,220,178,"5G8/6","color-picker",40,243568,"block1_target_trial",NA
"191","full_sample","3MMN5BL1WZ4YT7ZI4TBF0RUCVAWM3Z",0,1736.33500002325,"corpse",44,216,65,0,"10R5/16","color-picker",43,277071,"block1_target_trial",NA
"192","full_sample","39PAAFCODM0MIBRLX0IX50HNG2LTV4",0,1357.25499992259,"pheasant",13,252,190,0,"5Y8/14","color-picker",109,270034,"block2_target_trial",NA
"193","full_sample","36DSNE9QZ5YXEOMJKUIF8206M7XOJS",0,2234.24499999965,"boat",16,151,214,204,"5BG8/4","color-picker",41,246312,"block1_target_trial",NA
"194","full_sample","3CTOC39K37QQTIUK381DXGEBWINJ7X",0,2411.22999996878,"belt",83,0,63,80,"5B2/6","color-picker",42,256417,"block1_target_trial",NA
"195","full_sample","3KIBXJ1WD5USP8S12FIR9H0J1WXOKR",0,4156.08500000963,"corpse",44,216,65,0,"10R5/16","color-picker",26,279677,"block1_target_trial",NA
"196","full_sample","3MMN5BL1WZ4YT7ZI4TBF0RUCVAWM3Z",0,2809.45499998052,"appearance",32,181,182,181,"N7","color-picker",44,280387,"block1_target_trial",NA
"197","full_sample","36DSNE9QZ5YXEOMJKUIF8206M7XOJS",0,1723.78499998013,"relief",4,203,237,224,"10G9/2","color-picker",42,248542,"block1_target_trial",NA
"198","full_sample","3CTOC39K37QQTIUK381DXGEBWINJ7X",0,1831.37500000885,"fish",14,184,216,68,"5GY8/10","color-picker",43,258765,"block1_target_trial",NA
"199","full_sample","3MMN5BL1WZ4YT7ZI4TBF0RUCVAWM3Z",0,1759.20500000939,"relief",60,0,118,107,"5BG4/8","color-picker",45,282653,"block1_target_trial",NA
"200","full_sample","39PAAFCODM0MIBRLX0IX50HNG2LTV4",0,2543.21000003256,"faith",45,170,103,0,"10YR5/10","color-picker",111,275436,"block2_target_trial",NA
"201","full_sample","3KIBXJ1WD5USP8S12FIR9H0J1WXOKR",0,3172.81499999808,"bone",10,233,232,231,"N9","color-picker",27,283356,"block1_target_trial",NA
"202","full_sample","3CTOC39K37QQTIUK381DXGEBWINJ7X",0,2616.88499996671,"lemon",13,252,190,0,"5Y8/14","color-picker",44,261885,"block1_target_trial",NA
"203","full_sample","3MMN5BL1WZ4YT7ZI4TBF0RUCVAWM3Z",0,2103.26499998337,"romance",75,139,23,66,"10RP3/10","color-picker",46,285265,"block1_target_trial",NA
"204","full_sample","36DSNE9QZ5YXEOMJKUIF8206M7XOJS",0,4354.50000001583,"loyal",6,216,232,240,"10B9/2","color-picker",43,253401,"block1_target_trial",NA
"205","full_sample","3KIBXJ1WD5USP8S12FIR9H0J1WXOKR",0,2341.22500001104,"playfulness",13,252,190,0,"5Y8/14","color-picker",28,286202,"block1_target_trial",NA
"206","full_sample","3CTOC39K37QQTIUK381DXGEBWINJ7X",0,2572.44499999797,"barley",47,54,142,15,"10GY5/12","color-picker",45,264965,"block1_target_trial",NA
"207","full_sample","3MMN5BL1WZ4YT7ZI4TBF0RUCVAWM3Z",0,1786.12499998417,"tarantula",45,170,103,0,"10YR5/10","color-picker",47,287557,"block1_target_trial",NA
"208","full_sample","36DSNE9QZ5YXEOMJKUIF8206M7XOJS",0,1635.46999997925,"desire",4,203,237,224,"10G9/2","color-picker",44,255541,"block1_target_trial",NA
"209","full_sample","3MMN5BL1WZ4YT7ZI4TBF0RUCVAWM3Z",0,1256.06499996502,"shampoo",34,231,111,0,"5YR6/14","color-picker",48,289319,"block1_target_trial",NA
"210","full_sample","36DSNE9QZ5YXEOMJKUIF8206M7XOJS",0,1789.05999998096,"optimism",3,200,241,191,"10GY9/4","color-picker",45,257836,"block1_target_trial",NA
"211","full_sample","3KIBXJ1WD5USP8S12FIR9H0J1WXOKR",0,3656.75999999803,"ache",67,100,65,8,"10YR3/6","color-picker",29,290365,"block1_target_trial",NA
"212","full_sample","3MMN5BL1WZ4YT7ZI4TBF0RUCVAWM3Z",0,1368.60499996692,"sun",13,252,190,0,"5Y8/14","color-picker",49,291193,"block1_target_trial",NA
"213","full_sample","3CTOC39K37QQTIUK381DXGEBWINJ7X",0,3392.73500000127,"success",59,0,117,66,"5G4/10","color-picker",46,268861,"block1_target_trial",NA
"214","full_sample","3CTOC39K37QQTIUK381DXGEBWINJ7X",0,2023.79499998642,"heaven",29,173,169,229,"10PB7/8","color-picker",47,271389,"block1_target_trial",NA
"215","full_sample","3MMN5BL1WZ4YT7ZI4TBF0RUCVAWM3Z",0,2248.84499999462,"rock",65,107,108,107,"N4","color-picker",50,293949,"block1_target_trial",NA
"216","full_sample","3KIBXJ1WD5USP8S12FIR9H0J1WXOKR",0,4020.52000000549,"boat",32,181,182,181,"N7","color-picker",30,294890,"block1_target_trial",NA
"217","full_sample","36DSNE9QZ5YXEOMJKUIF8206M7XOJS",0,5408.85500004515,"excitement",47,54,142,15,"10GY5/12","color-picker",46,263751,"block1_target_trial",NA
"218","full_sample","3MMN5BL1WZ4YT7ZI4TBF0RUCVAWM3Z",0,1728.56000001775,"barley",2,238,234,140,"10Y9/6","color-picker",51,296183,"block1_target_trial",NA
"219","full_sample","39PAAFCODM0MIBRLX0IX50HNG2LTV4",0,11821.3949999772,"success",44,216,65,0,"10R5/16","color-picker",113,289797,"block2_target_trial",NA
"220","full_sample","3CTOC39K37QQTIUK381DXGEBWINJ7X",0,3734.05999998795,"sadness",10,233,232,231,"N9","color-picker",48,275642,"block1_target_trial",NA
"221","full_sample","3MMN5BL1WZ4YT7ZI4TBF0RUCVAWM3Z",0,1535.6599999941,"loyal",61,0,121,148,"5B4/10","color-picker",52,298227,"block1_target_trial",NA
"222","full_sample","36DSNE9QZ5YXEOMJKUIF8206M7XOJS",0,1683.88500000583,"fork",3,200,241,191,"10GY9/4","color-picker",47,265940,"block1_target_trial",NA
"223","full_sample","3KIBXJ1WD5USP8S12FIR9H0J1WXOKR",0,2402.83999999519,"rose",44,216,65,0,"10R5/16","color-picker",31,297796,"block1_target_trial",NA
"224","full_sample","3MMN5BL1WZ4YT7ZI4TBF0RUCVAWM3Z",0,1587.29500003392,"gloom",87,59,58,58,"N2","color-picker",53,300325,"block1_target_trial",NA
"225","full_sample","3CTOC39K37QQTIUK381DXGEBWINJ7X",0,2331.66500000516,"appearance",22,254,147,109,"10R7/10","color-picker",49,278477,"block1_target_trial",NA
"226","full_sample","39PAAFCODM0MIBRLX0IX50HNG2LTV4",0,1787.54000016488,"loyal",35,187,139,0,"5Y6/10","color-picker",115,293652,"block2_target_trial",NA
"227","full_sample","36DSNE9QZ5YXEOMJKUIF8206M7XOJS",0,3394.34999995865,"computer",5,205,236,235,"10BG9/2","color-picker",48,269840,"block1_target_trial",NA
"228","full_sample","3KIBXJ1WD5USP8S12FIR9H0J1WXOKR",0,3901.9100000005,"tarantula",87,59,58,58,"N2","color-picker",32,302203,"block1_target_trial",NA
"229","full_sample","3MMN5BL1WZ4YT7ZI4TBF0RUCVAWM3Z",0,2209.03500000713,"temptation",47,54,142,15,"10GY5/12","color-picker",54,303041,"block1_target_trial",NA
"230","full_sample","3CTOC39K37QQTIUK381DXGEBWINJ7X",0,2000.93000003835,"energy",38,0,173,154,"5BG6/10","color-picker",50,280981,"block1_target_trial",NA
"231","full_sample","36DSNE9QZ5YXEOMJKUIF8206M7XOJS",0,1453.52999999886,"appearance",4,203,237,224,"10G9/2","color-picker",49,271800,"block1_target_trial",NA
"232","full_sample","3MMN5BL1WZ4YT7ZI4TBF0RUCVAWM3Z",0,1251.74500001594,"energy",36,136,152,0,"5GY6/10","color-picker",55,304803,"block1_target_trial",NA
"233","full_sample","39PAAFCODM0MIBRLX0IX50HNG2LTV4",0,1202.78999977745,"sun",13,252,190,0,"5Y8/14","color-picker",117,296799,"block2_target_trial",NA
"234","full_sample","36DSNE9QZ5YXEOMJKUIF8206M7XOJS",0,1544.08000002149,"barley",3,200,241,191,"10GY9/4","color-picker",50,273850,"block1_target_trial",NA
"235","full_sample","3MMN5BL1WZ4YT7ZI4TBF0RUCVAWM3Z",0,1463.83000002243,"blue",62,0,113,178,"5PB4/12","color-picker",56,306773,"block1_catch_trial",NA
"236","full_sample","3KIBXJ1WD5USP8S12FIR9H0J1WXOKR",0,4325.1750000054,"temptation",44,216,65,0,"10R5/16","color-picker",33,307035,"block1_target_trial",NA
"237","full_sample","39PAAFCODM0MIBRLX0IX50HNG2LTV4",0,1104.16000010446,"bone",0,245,225,219,"10R9/2","color-picker",119,300164,"block2_target_trial",NA
"238","full_sample","36DSNE9QZ5YXEOMJKUIF8206M7XOJS",0,3344.21499999007,"blue",62,0,113,178,"5PB4/12","color-picker",51,277700,"block1_catch_trial",NA
"239","full_sample","39PAAFCODM0MIBRLX0IX50HNG2LTV4",0,1329.22499999404,"energy",13,252,190,0,"5Y8/14","color-picker",121,303175,"block2_target_trial",NA
"240","full_sample","3KIBXJ1WD5USP8S12FIR9H0J1WXOKR",0,4109.80500000005,"gloom",32,181,182,181,"N7","color-picker",34,311650,"block1_target_trial",NA
"241","full_sample","39PAAFCODM0MIBRLX0IX50HNG2LTV4",0,192.955000093207,"fish",82,0,62,57,"5BG2/6","color-picker",123,304846,"block2_target_trial",NA
"242","full_sample","3CTOC39K37QQTIUK381DXGEBWINJ7X",0,9378.54499998502,"bone",5,205,236,235,"10BG9/2","color-picker",51,290864,"block1_target_trial",NA
"243","full_sample","3KIBXJ1WD5USP8S12FIR9H0J1WXOKR",0,1487.11499999627,"sadness",32,181,182,181,"N7","color-picker",35,313641,"block1_target_trial",NA
"244","full_sample","3CTOC39K37QQTIUK381DXGEBWINJ7X",0,1748.98999999277,"shampoo",25,103,196,96,"10GY7/10","color-picker",52,293117,"block1_target_trial",NA
"245","full_sample","3MMN5BL1WZ4YT7ZI4TBF0RUCVAWM3Z",0,3213.15500000492,"tarantula",66,137,34,17,"10R3/10","color-picker",58,317119,"block2_target_trial",NA
"246","full_sample","36DSNE9QZ5YXEOMJKUIF8206M7XOJS",0,6893.5899999924,"fish",54,136,137,135,"N5","color-picker",52,285100,"block1_target_trial",NA
"247","full_sample","3CTOC39K37QQTIUK381DXGEBWINJ7X",0,3542.38499997882,"corpse",80,46,52,38,"5GY2/2","color-picker",53,297165,"block1_target_trial",NA
"248","full_sample","36DSNE9QZ5YXEOMJKUIF8206M7XOJS",0,2104.22500001732,"ache",4,203,237,224,"10G9/2","color-picker",53,287709,"block1_target_trial",NA
"249","full_sample","39PAAFCODM0MIBRLX0IX50HNG2LTV4",0,2585.13500005938,"rose",33,239,107,106,"5R6/12","color-picker",125,312779,"block2_target_trial",NA
"250","full_sample","3MMN5BL1WZ4YT7ZI4TBF0RUCVAWM3Z",0,1607.57999995258,"energy",47,54,142,15,"10GY5/12","color-picker",60,321701,"block2_target_trial",NA
"251","full_sample","36DSNE9QZ5YXEOMJKUIF8206M7XOJS",0,2385.27999998769,"heroism",2,238,234,140,"10Y9/6","color-picker",54,290599,"block1_target_trial",NA
"252","full_sample","39PAAFCODM0MIBRLX0IX50HNG2LTV4",0,958.899999968708,"staple",26,64,196,164,"10G7/8","color-picker",127,315406,"block2_target_trial",NA
"253","full_sample","3KIBXJ1WD5USP8S12FIR9H0J1WXOKR",0,8903.91999999702,"pheasant",10,233,232,231,"N9","color-picker",36,323050,"block1_target_trial",NA
"254","full_sample","3MMN5BL1WZ4YT7ZI4TBF0RUCVAWM3Z",0,1295.22000002908,"belt",87,59,58,58,"N2","color-picker",62,325131,"block2_target_trial",NA
"255","full_sample","39PAAFCODM0MIBRLX0IX50HNG2LTV4",0,1258.79999995232,"heroism",63,132,71,157,"5P4/12","color-picker",129,318293,"block2_target_trial",NA
"256","full_sample","36DSNE9QZ5YXEOMJKUIF8206M7XOJS",0,3432.81500000739,"pain",44,216,65,0,"10R5/16","color-picker",55,294539,"block1_target_trial",NA
"257","full_sample","3KIBXJ1WD5USP8S12FIR9H0J1WXOKR",0,3321.99499999115,"fork",21,202,202,202,"N8","color-picker",37,326878,"block1_target_trial",NA
"258","full_sample","36DSNE9QZ5YXEOMJKUIF8206M7XOJS",0,1802.07999999402,"urge",3,200,241,191,"10GY9/4","color-picker",56,296849,"block1_target_trial",NA
"259","full_sample","3CTOC39K37QQTIUK381DXGEBWINJ7X",0,9392.24499999546,"excitement",13,252,190,0,"5Y8/14","color-picker",54,307061,"block1_target_trial",NA
"260","full_sample","39PAAFCODM0MIBRLX0IX50HNG2LTV4",0,1325.30999998562,"belt",87,59,58,58,"N2","color-picker",131,321367,"block2_target_trial",NA
"261","full_sample","39PAAFCODM0MIBRLX0IX50HNG2LTV4",0,1186.47499987856,"boat",50,0,146,196,"10B5/12","color-picker",133,324126,"block2_target_trial",NA
"262","full_sample","3MMN5BL1WZ4YT7ZI4TBF0RUCVAWM3Z",0,2408.25999999652,"success",50,0,146,196,"10B5/12","color-picker",64,333222,"block2_target_trial",NA
"263","full_sample","3CTOC39K37QQTIUK381DXGEBWINJ7X",0,4598.84499997133,"pain",55,190,26,52,"5R4/14","color-picker",55,312165,"block1_target_trial",NA
"264","full_sample","39PAAFCODM0MIBRLX0IX50HNG2LTV4",0,2272.34000014141,"relief",44,216,65,0,"10R5/16","color-picker",135,327805,"block2_target_trial",NA
"265","full_sample","3MMN5BL1WZ4YT7ZI4TBF0RUCVAWM3Z",0,1239.9049999658,"sadness",72,0,79,142,"10B3/10","color-picker",66,336346,"block2_target_trial",NA
"266","full_sample","3KIBXJ1WD5USP8S12FIR9H0J1WXOKR",0,9043.7249999959,"faith",44,216,65,0,"10R5/16","color-picker",38,336425,"block1_target_trial",NA
"267","full_sample","36DSNE9QZ5YXEOMJKUIF8206M7XOJS",0,4651.21500001987,"success",47,54,142,15,"10GY5/12","color-picker",58,304918,"block2_target_trial",NA
"268","full_sample","39PAAFCODM0MIBRLX0IX50HNG2LTV4",0,1209.559999872,"divinity",38,0,173,154,"5BG6/10","color-picker",137,331119,"block2_target_trial",NA
"269","full_sample","3KIBXJ1WD5USP8S12FIR9H0J1WXOKR",0,2548.94500000228,"chalk",10,233,232,231,"N9","color-picker",39,339480,"block1_target_trial",NA
"270","full_sample","3MMN5BL1WZ4YT7ZI4TBF0RUCVAWM3Z",0,1687.76000000071,"bone",21,202,202,202,"N8","color-picker",68,340311,"block2_target_trial",NA
"271","full_sample","3CTOC39K37QQTIUK381DXGEBWINJ7X",0,5664.17000000365,"rock",65,107,108,107,"N4","color-picker",56,318333,"block1_target_trial",NA
"272","full_sample","3MMN5BL1WZ4YT7ZI4TBF0RUCVAWM3Z",0,1287.82999998657,"barley",2,238,234,140,"10Y9/6","color-picker",70,343836,"block2_target_trial",NA
"273","full_sample","3MMN5BL1WZ4YT7ZI4TBF0RUCVAWM3Z",0,1887.83500000136,"rose",55,190,26,52,"5R4/14","color-picker",72,347857,"block2_target_trial",NA
"274","full_sample","3KIBXJ1WD5USP8S12FIR9H0J1WXOKR",0,8815.15999999829,"loyal",47,54,142,15,"10GY5/12","color-picker",40,348798,"block1_target_trial",NA
"275","full_sample","3KIBXJ1WD5USP8S12FIR9H0J1WXOKR",0,1524.77499999804,"pain",44,216,65,0,"10R5/16","color-picker",41,350827,"block1_target_trial",NA
"276","full_sample","3MMN5BL1WZ4YT7ZI4TBF0RUCVAWM3Z",0,2233.89999999199,"loyal",47,54,142,15,"10GY5/12","color-picker",74,351999,"block2_target_trial",NA
"277","full_sample","3KIBXJ1WD5USP8S12FIR9H0J1WXOKR",0,1665.07499999716,"lemon",13,252,190,0,"5Y8/14","color-picker",42,352997,"block1_target_trial",NA
"278","full_sample","3MMN5BL1WZ4YT7ZI4TBF0RUCVAWM3Z",0,1751.70999998227,"desire",63,132,71,157,"5P4/12","color-picker",76,355651,"block2_target_trial",NA
"279","full_sample","3KIBXJ1WD5USP8S12FIR9H0J1WXOKR",0,3388.9199999976,"heroism",87,59,58,58,"N2","color-picker",43,356891,"block1_target_trial",NA
"280","full_sample","3KIBXJ1WD5USP8S12FIR9H0J1WXOKR",0,2884.13000000583,"urge",44,216,65,0,"10R5/16","color-picker",44,360279,"block1_target_trial",NA
"281","full_sample","36DSNE9QZ5YXEOMJKUIF8206M7XOJS",0,2414.54500000691,"relief",2,238,234,140,"10Y9/6","color-picker",60,328512,"block2_target_trial",NA
"282","full_sample","3MMN5BL1WZ4YT7ZI4TBF0RUCVAWM3Z",0,1471.98000003118,"urge",44,216,65,0,"10R5/16","color-picker",78,361940,"block2_target_trial",NA
"283","full_sample","3KIBXJ1WD5USP8S12FIR9H0J1WXOKR",0,1546.79999999644,"desire",44,216,65,0,"10R5/16","color-picker",45,362330,"block1_target_trial",NA
"284","full_sample","3MMN5BL1WZ4YT7ZI4TBF0RUCVAWM3Z",0,1240.0599999819,"pain",55,190,26,52,"5R4/14","color-picker",80,365554,"block2_target_trial",NA
"285","full_sample","3KIBXJ1WD5USP8S12FIR9H0J1WXOKR",0,3224.33500000625,"blue",72,0,79,142,"10B3/10","color-picker",46,366061,"block1_catch_trial",NA
"286","full_sample","3MMN5BL1WZ4YT7ZI4TBF0RUCVAWM3Z",0,1616.03500001365,"faith",50,0,146,196,"10B5/12","color-picker",82,369285,"block2_target_trial",NA
"287","full_sample","3KIBXJ1WD5USP8S12FIR9H0J1WXOKR",0,4197.14500001282,"shampoo",10,233,232,231,"N9","color-picker",47,370765,"block1_target_trial",NA
"288","full_sample","3MMN5BL1WZ4YT7ZI4TBF0RUCVAWM3Z",0,1831.17000001948,"boat",59,0,117,66,"5G4/10","color-picker",84,373131,"block2_target_trial",NA
"289","full_sample","3KIBXJ1WD5USP8S12FIR9H0J1WXOKR",0,1946.03500000085,"optimism",13,252,190,0,"5Y8/14","color-picker",48,373217,"block1_target_trial",NA
"290","full_sample","3KIBXJ1WD5USP8S12FIR9H0J1WXOKR",0,1306.89500000153,"romance",44,216,65,0,"10R5/16","color-picker",49,375029,"block1_target_trial",NA
"291","full_sample","36DSNE9QZ5YXEOMJKUIF8206M7XOJS",0,5265.49499999965,"bone",3,200,241,191,"10GY9/4","color-picker",62,343591,"block2_target_trial",NA
"292","full_sample","3MMN5BL1WZ4YT7ZI4TBF0RUCVAWM3Z",0,1567.83999997424,"optimism",2,238,234,140,"10Y9/6","color-picker",86,376496,"block2_target_trial",NA
"293","full_sample","3KIBXJ1WD5USP8S12FIR9H0J1WXOKR",0,3271.33999999205,"staple",21,202,202,202,"N8","color-picker",50,378805,"block1_target_trial",NA
"294","full_sample","3MMN5BL1WZ4YT7ZI4TBF0RUCVAWM3Z",0,1342.42000000086,"fish",50,0,146,196,"10B5/12","color-picker",88,379956,"block2_target_trial",NA
"295","full_sample","3KIBXJ1WD5USP8S12FIR9H0J1WXOKR",0,2245.85000000661,"success",47,54,142,15,"10GY5/12","color-picker",51,381555,"block1_target_trial",NA
"296","full_sample","3MMN5BL1WZ4YT7ZI4TBF0RUCVAWM3Z",0,1575.54000004893,"excitement",24,203,172,0,"10Y7/12","color-picker",90,383522,"block2_target_trial",NA
"297","full_sample","36DSNE9QZ5YXEOMJKUIF8206M7XOJS",0,2414.700000023,"urge",5,205,236,235,"10BG9/2","color-picker",64,352470,"block2_target_trial",NA
"298","full_sample","3KIBXJ1WD5USP8S12FIR9H0J1WXOKR",0,4161.24499999569,"appearance",47,54,142,15,"10GY5/12","color-picker",52,386220,"block1_target_trial",NA
"299","full_sample","3MMN5BL1WZ4YT7ZI4TBF0RUCVAWM3Z",0,1959.60999996169,"temptation",55,190,26,52,"5R4/14","color-picker",92,387373,"block2_target_trial",NA
"300","full_sample","3MMN5BL1WZ4YT7ZI4TBF0RUCVAWM3Z",0,2119.63500001002,"computer",40,96,151,219,"5PB6/10","color-picker",94,391507,"block2_target_trial",NA
"301","full_sample","3KIBXJ1WD5USP8S12FIR9H0J1WXOKR",0,5129.39000000188,"toe",56,146,80,27,"5YR4/8","color-picker",53,391854,"block1_target_trial",NA
"302","full_sample","36DSNE9QZ5YXEOMJKUIF8206M7XOJS",0,3234.96499995235,"pain",44,216,65,0,"10R5/16","color-picker",66,361150,"block2_target_trial",NA
"303","full_sample","3KIBXJ1WD5USP8S12FIR9H0J1WXOKR",0,2429.75000001024,"belt",87,59,58,58,"N2","color-picker",54,394790,"block1_target_trial",NA
"304","full_sample","3MMN5BL1WZ4YT7ZI4TBF0RUCVAWM3Z",0,1839.52999999747,"lemon",13,252,190,0,"5Y8/14","color-picker",96,395697,"block2_target_trial",NA
"305","full_sample","3CTOC39K37QQTIUK381DXGEBWINJ7X",0,2569.49999998324,"corpse",79,56,49,32,"5Y2/2","color-picker",58,373564,"block2_target_trial",NA
"306","full_sample","3KIBXJ1WD5USP8S12FIR9H0J1WXOKR",0,1575.68999999785,"energy",13,252,190,0,"5Y8/14","color-picker",55,396870,"block1_target_trial",NA
"307","full_sample","3KIBXJ1WD5USP8S12FIR9H0J1WXOKR",0,920.270000002347,"excitement",13,252,190,0,"5Y8/14","color-picker",56,398297,"block1_target_trial",NA
"308","full_sample","3MMN5BL1WZ4YT7ZI4TBF0RUCVAWM3Z",0,2302.94500000309,"corpse",44,216,65,0,"10R5/16","color-picker",98,400391,"block2_target_trial",NA
"309","full_sample","36DSNE9QZ5YXEOMJKUIF8206M7XOJS",0,1975.86000000592,"desire",1,255,225,176,"10YR9/4","color-picker",68,368380,"block2_target_trial",NA
"310","full_sample","3MMN5BL1WZ4YT7ZI4TBF0RUCVAWM3Z",0,1727.82500000903,"relief",72,0,79,142,"10B3/10","color-picker",100,403795,"block2_target_trial",NA
"311","full_sample","3CTOC39K37QQTIUK381DXGEBWINJ7X",0,2148.6600000062,"fish",27,29,194,202,"10BG7/8","color-picker",60,381980,"block2_target_trial",NA
"312","full_sample","3MMN5BL1WZ4YT7ZI4TBF0RUCVAWM3Z",0,1385.3250000393,"red",55,190,26,52,"5R4/14","color-picker",102,406939,"block2_catch_trial",NA
"313","full_sample","3KIBXJ1WD5USP8S12FIR9H0J1WXOKR",0,1171.45000000892,"sun",13,252,190,0,"5Y8/14","color-picker",58,408112,"block2_target_trial",NA
"314","full_sample","3MMN5BL1WZ4YT7ZI4TBF0RUCVAWM3Z",0,2510.42499998584,"rock",87,59,58,58,"N2","color-picker",103,409955,"block2_target_trial",NA
"315","full_sample","36DSNE9QZ5YXEOMJKUIF8206M7XOJS",0,5005.44999999693,"red",44,216,65,0,"10R5/16","color-picker",70,378538,"block2_catch_trial",NA
"316","full_sample","3CTOC39K37QQTIUK381DXGEBWINJ7X",0,4612.7250000136,"romance",55,190,26,52,"5R4/14","color-picker",62,389692,"block2_target_trial",NA
"317","full_sample","3MMN5BL1WZ4YT7ZI4TBF0RUCVAWM3Z",0,2810.19500002731,"gloom",82,0,62,57,"5BG2/6","color-picker",105,415043,"block2_target_trial",NA
"318","full_sample","3KIBXJ1WD5USP8S12FIR9H0J1WXOKR",0,2051.70500000531,"energy",13,252,190,0,"5Y8/14","color-picker",60,415818,"block2_target_trial",NA
"319","full_sample","36DSNE9QZ5YXEOMJKUIF8206M7XOJS",0,5434.63000003248,"faith",47,54,142,15,"10GY5/12","color-picker",71,384482,"block2_target_trial",NA
"320","full_sample","3CTOC39K37QQTIUK381DXGEBWINJ7X",0,2299.92499999935,"heaven",17,158,211,223,"5B8/4","color-picker",64,395700,"block2_target_trial",NA
"321","full_sample","3MMN5BL1WZ4YT7ZI4TBF0RUCVAWM3Z",0,1551.7300000065,"toe",87,59,58,58,"N2","color-picker",107,418895,"block2_target_trial",NA
"322","full_sample","3KIBXJ1WD5USP8S12FIR9H0J1WXOKR",0,2265.64999998664,"corpse",44,216,65,0,"10R5/16","color-picker",62,420823,"block2_target_trial",NA
"323","full_sample","3MMN5BL1WZ4YT7ZI4TBF0RUCVAWM3Z",0,1263.89000000199,"playfulness",35,187,139,0,"5Y6/10","color-picker",109,422029,"block2_target_trial",NA
"324","full_sample","3CTOC39K37QQTIUK381DXGEBWINJ7X",0,3244.944999984,"rock",54,136,137,135,"N5","color-picker",66,401708,"block2_target_trial",NA
"325","full_sample","36DSNE9QZ5YXEOMJKUIF8206M7XOJS",0,2222.53500000807,"corpse",3,200,241,191,"10GY9/4","color-picker",73,392871,"block2_target_trial",NA
"326","full_sample","3MMN5BL1WZ4YT7ZI4TBF0RUCVAWM3Z",0,2889.67999996385,"appearance",47,54,142,15,"10GY5/12","color-picker",111,427027,"block2_target_trial",NA
"327","full_sample","3KIBXJ1WD5USP8S12FIR9H0J1WXOKR",0,3721.63,"heaven",28,99,185,228,"10B7/8","color-picker",64,427607,"block2_target_trial",NA
"328","full_sample","3CTOC39K37QQTIUK381DXGEBWINJ7X",0,2980.87000002852,"robin",22,254,147,109,"10R7/10","color-picker",68,407396,"block2_target_trial",NA
"329","full_sample","3MMN5BL1WZ4YT7ZI4TBF0RUCVAWM3Z",0,1335.96499997657,"mansion",46,141,120,0,"10Y5/8","color-picker",113,430383,"block2_target_trial",NA
"330","full_sample","3KIBXJ1WD5USP8S12FIR9H0J1WXOKR",0,2091.35000000242,"loyal",47,54,142,15,"10GY5/12","color-picker",66,433031,"block2_target_trial",NA
"331","full_sample","3MMN5BL1WZ4YT7ZI4TBF0RUCVAWM3Z",0,1487.75000002934,"fork",62,0,113,178,"5PB4/12","color-picker",115,434333,"block2_target_trial",NA
"332","full_sample","3MMN5BL1WZ4YT7ZI4TBF0RUCVAWM3Z",0,1200.02500002738,"heroism",35,187,139,0,"5Y6/10","color-picker",117,437513,"block2_target_trial",NA
"333","full_sample","3KIBXJ1WD5USP8S12FIR9H0J1WXOKR",0,1721.30499999912,"success",47,54,142,15,"10GY5/12","color-picker",68,437394,"block2_target_trial",NA
"334","full_sample","36DSNE9QZ5YXEOMJKUIF8206M7XOJS",0,7438.36499995086,"heroism",27,29,194,202,"10BG7/8","color-picker",75,406641,"block2_target_trial",NA
"335","full_sample","3CTOC39K37QQTIUK381DXGEBWINJ7X",0,5252.60499998694,"optimism",28,99,185,228,"10B7/8","color-picker",70,417195,"block2_target_trial",NA
"336","full_sample","3MMN5BL1WZ4YT7ZI4TBF0RUCVAWM3Z",0,1471.8850000063,"divinity",62,0,113,178,"5PB4/12","color-picker",119,440821,"block2_target_trial",NA
"337","full_sample","3MMN5BL1WZ4YT7ZI4TBF0RUCVAWM3Z",0,1295.60499999207,"sun",13,252,190,0,"5Y8/14","color-picker",121,443937,"block2_target_trial",NA
"338","full_sample","3KIBXJ1WD5USP8S12FIR9H0J1WXOKR",0,4627.07500001125,"sadness",32,181,182,181,"N7","color-picker",70,444409,"block2_target_trial",NA
"339","full_sample","36DSNE9QZ5YXEOMJKUIF8206M7XOJS",0,3413.17499999423,"rose",33,239,107,106,"5R6/12","color-picker",77,414400,"block2_target_trial",NA
"340","full_sample","3MMN5BL1WZ4YT7ZI4TBF0RUCVAWM3Z",0,1357.6699999976,"pheasant",46,141,120,0,"10Y5/8","color-picker",123,447325,"block2_target_trial",NA
"341","full_sample","3KIBXJ1WD5USP8S12FIR9H0J1WXOKR",0,1779.47000000859,"optimism",13,252,190,0,"5Y8/14","color-picker",72,448452,"block2_target_trial",NA
"342","full_sample","3MMN5BL1WZ4YT7ZI4TBF0RUCVAWM3Z",0,1336.21999999741,"staple",21,202,202,202,"N8","color-picker",125,450611,"block2_target_trial",NA
"343","full_sample","3CTOC39K37QQTIUK381DXGEBWINJ7X",0,9740.88499997742,"mansion",15,135,220,178,"5G8/6","color-picker",72,429172,"block2_target_trial",NA
"344","full_sample","3KIBXJ1WD5USP8S12FIR9H0J1WXOKR",0,1743.22499999835,"heroism",87,59,58,58,"N2","color-picker",74,452838,"block2_target_trial",NA
"345","full_sample","3MMN5BL1WZ4YT7ZI4TBF0RUCVAWM3Z",0,1375.99500000942,"shampoo",61,0,121,148,"5B4/10","color-picker",127,453799,"block2_target_trial",NA
"346","full_sample","36DSNE9QZ5YXEOMJKUIF8206M7XOJS",0,2888.74500000384,"rock",47,54,142,15,"10GY5/12","color-picker",79,423140,"block2_target_trial",NA
"347","full_sample","3MMN5BL1WZ4YT7ZI4TBF0RUCVAWM3Z",0,1375.77999994392,"heaven",2,238,234,140,"10Y9/6","color-picker",129,457579,"block2_target_trial",NA
"348","full_sample","3KIBXJ1WD5USP8S12FIR9H0J1WXOKR",0,2221.23999999894,"mansion",47,54,142,15,"10GY5/12","color-picker",76,458463,"block2_target_trial",NA
"349","full_sample","3MMN5BL1WZ4YT7ZI4TBF0RUCVAWM3Z",0,1319.82499995502,"robin",68,76,74,29,"10Y3/4","color-picker",131,461041,"block2_target_trial",NA
"350","full_sample","3KIBXJ1WD5USP8S12FIR9H0J1WXOKR",0,1661.05999999854,"rose",44,216,65,0,"10R5/16","color-picker",78,462311,"block2_target_trial",NA
"351","full_sample","3MMN5BL1WZ4YT7ZI4TBF0RUCVAWM3Z",0,1310.49000000348,"ache",44,216,65,0,"10R5/16","color-picker",133,464309,"block2_target_trial",NA
"352","full_sample","3MMN5BL1WZ4YT7ZI4TBF0RUCVAWM3Z",0,1528.22499995818,"romance",63,132,71,157,"5P4/12","color-picker",135,467689,"block2_target_trial",NA
"353","full_sample","3KIBXJ1WD5USP8S12FIR9H0J1WXOKR",0,2099.71999999834,"computer",87,59,58,58,"N2","color-picker",80,467932,"block2_target_trial",NA
"354","full_sample","36DSNE9QZ5YXEOMJKUIF8206M7XOJS",0,3839.14500003448,"temptation",4,203,237,224,"10G9/2","color-picker",81,436888,"block2_target_trial",NA
"355","full_sample","3MMN5BL1WZ4YT7ZI4TBF0RUCVAWM3Z",0,1248.14500001958,"chalk",21,202,202,202,"N8","color-picker",137,470541,"block2_target_trial",NA
"356","full_sample","3KIBXJ1WD5USP8S12FIR9H0J1WXOKR",0,1774.86499999941,"romance",44,216,65,0,"10R5/16","color-picker",82,472717,"block2_target_trial",NA
"357","full_sample","36DSNE9QZ5YXEOMJKUIF8206M7XOJS",0,3078.81999999518,"fish",32,181,182,181,"N7","color-picker",83,444562,"block2_target_trial",NA
"358","full_sample","3KIBXJ1WD5USP8S12FIR9H0J1WXOKR",0,1706.50999998907,"robin",44,216,65,0,"10R5/16","color-picker",84,476579,"block2_target_trial",NA
"359","full_sample","3KIBXJ1WD5USP8S12FIR9H0J1WXOKR",0,1967.09499999997,"urge",44,216,65,0,"10R5/16","color-picker",86,480949,"block2_target_trial",NA
"360","full_sample","36DSNE9QZ5YXEOMJKUIF8206M7XOJS",0,2175.40999996709,"pheasant",3,200,241,191,"10GY9/4","color-picker",85,451402,"block2_target_trial",NA
"361","full_sample","3KIBXJ1WD5USP8S12FIR9H0J1WXOKR",0,2530.19499999937,"pheasant",10,233,232,231,"N9","color-picker",88,487267,"block2_target_trial",NA
"362","full_sample","3KIBXJ1WD5USP8S12FIR9H0J1WXOKR",0,1934.52999999863,"lemon",13,252,190,0,"5Y8/14","color-picker",90,492380,"block2_target_trial",NA
"363","full_sample","3KIBXJ1WD5USP8S12FIR9H0J1WXOKR",0,2068.47499999276,"toe",56,146,80,27,"5YR4/8","color-picker",92,497300,"block2_target_trial",NA
"364","full_sample","36DSNE9QZ5YXEOMJKUIF8206M7XOJS",0,8594.12000002339,"energy",47,54,142,15,"10GY5/12","color-picker",87,467280,"block2_target_trial",NA
"365","full_sample","3KIBXJ1WD5USP8S12FIR9H0J1WXOKR",0,3304.42000000039,"desire",44,216,65,0,"10R5/16","color-picker",94,504867,"block2_target_trial",NA
"366","full_sample","36DSNE9QZ5YXEOMJKUIF8206M7XOJS",0,3255.50500000827,"playfulness",24,203,172,0,"10Y7/12","color-picker",89,476100,"block2_target_trial",NA
"367","full_sample","3KIBXJ1WD5USP8S12FIR9H0J1WXOKR",0,5227.77500000666,"ache",44,216,65,0,"10R5/16","color-picker",96,512750,"block2_target_trial",NA
"368","full_sample","3CTOC39K37QQTIUK381DXGEBWINJ7X",0,11884.7449999885,"belt",43,163,162,162,"N6","color-picker",74,491964,"block2_target_trial",NA
"369","full_sample","36DSNE9QZ5YXEOMJKUIF8206M7XOJS",0,2505.27500000317,"toe",3,200,241,191,"10GY9/4","color-picker",91,484609,"block2_target_trial",NA
"370","full_sample","3KIBXJ1WD5USP8S12FIR9H0J1WXOKR",0,2047.90000000503,"staple",21,202,202,202,"N8","color-picker",98,518697,"block2_target_trial",NA
"371","full_sample","3KIBXJ1WD5USP8S12FIR9H0J1WXOKR",0,1496.28000000666,"red",44,216,65,0,"10R5/16","color-picker",100,522501,"block2_catch_trial",NA
"372","full_sample","3KIBXJ1WD5USP8S12FIR9H0J1WXOKR",0,2305.04999999539,"chalk",10,233,232,231,"N9","color-picker",101,525311,"block2_target_trial",NA
"373","full_sample","36DSNE9QZ5YXEOMJKUIF8206M7XOJS",0,5028.73999997973,"sun",23,244,150,0,"10YR7/14","color-picker",93,494289,"block2_target_trial",NA
"374","full_sample","3KIBXJ1WD5USP8S12FIR9H0J1WXOKR",0,2381.74500000605,"appearance",47,54,142,15,"10GY5/12","color-picker",103,531628,"block2_target_trial",NA
"375","full_sample","36DSNE9QZ5YXEOMJKUIF8206M7XOJS",0,2202.45500002056,"tarantula",2,238,234,140,"10Y9/6","color-picker",95,501868,"block2_target_trial",NA
"376","full_sample","3KIBXJ1WD5USP8S12FIR9H0J1WXOKR",0,1759.825000001,"tarantula",87,59,58,58,"N2","color-picker",105,535634,"block2_target_trial",NA
"377","full_sample","3CTOC39K37QQTIUK381DXGEBWINJ7X",0,1939.65499999467,"red",55,190,26,52,"5R4/14","color-picker",76,518227,"block2_catch_trial",NA
"378","full_sample","3KIBXJ1WD5USP8S12FIR9H0J1WXOKR",0,1756.21500000125,"belt",87,59,58,58,"N2","color-picker",107,540146,"block2_target_trial",NA
"379","full_sample","36DSNE9QZ5YXEOMJKUIF8206M7XOJS",0,3664.29500002414,"mansion",47,54,142,15,"10GY5/12","color-picker",97,510032,"block2_target_trial",NA
"380","full_sample","3CTOC39K37QQTIUK381DXGEBWINJ7X",0,2447.35500001116,"excitement",29,173,169,229,"10PB7/8","color-picker",77,521179,"block2_target_trial",NA
"381","full_sample","3KIBXJ1WD5USP8S12FIR9H0J1WXOKR",0,1706.10999999917,"temptation",44,216,65,0,"10R5/16","color-picker",109,543952,"block2_target_trial",NA
"382","full_sample","36DSNE9QZ5YXEOMJKUIF8206M7XOJS",0,2392.87500001956,"divinity",1,255,225,176,"10YR9/4","color-picker",99,516841,"block2_target_trial",NA
"383","full_sample","3CTOC39K37QQTIUK381DXGEBWINJ7X",0,2164.95000000577,"appearance",40,96,151,219,"5PB6/10","color-picker",79,532203,"block2_target_trial",NA
"384","full_sample","36DSNE9QZ5YXEOMJKUIF8206M7XOJS",0,3865.80000002868,"heaven",4,203,237,224,"10G9/2","color-picker",101,527311,"block2_target_trial",NA
"385","full_sample","3KIBXJ1WD5USP8S12FIR9H0J1WXOKR",0,13261.1949999991,"faith",44,216,65,0,"10R5/16","color-picker",111,559318,"block2_target_trial",NA
"386","full_sample","3KIBXJ1WD5USP8S12FIR9H0J1WXOKR",0,1755.10999999824,"playfulness",13,252,190,0,"5Y8/14","color-picker",113,563881,"block2_target_trial",NA
"387","full_sample","36DSNE9QZ5YXEOMJKUIF8206M7XOJS",0,2491.21000000741,"lemon",13,252,190,0,"5Y8/14","color-picker",103,534080,"block2_target_trial",NA
"388","full_sample","3KIBXJ1WD5USP8S12FIR9H0J1WXOKR",0,5352.57499999716,"shampoo",10,233,232,231,"N9","color-picker",115,572417,"block2_target_trial",NA
"389","full_sample","36DSNE9QZ5YXEOMJKUIF8206M7XOJS",0,3550.62499997439,"computer",4,203,237,224,"10G9/2","color-picker",105,542610,"block2_target_trial",NA
"390","full_sample","3CTOC39K37QQTIUK381DXGEBWINJ7X",0,13076.0149999987,"divinity",59,0,117,66,"5G4/10","color-picker",81,555555,"block2_target_trial",NA
"391","full_sample","36DSNE9QZ5YXEOMJKUIF8206M7XOJS",0,2445.61499997508,"gloom",5,205,236,235,"10BG9/2","color-picker",107,549590,"block2_target_trial",NA
"392","full_sample","3KIBXJ1WD5USP8S12FIR9H0J1WXOKR",0,11424.3299999944,"boat",21,202,202,202,"N8","color-picker",117,586256,"block2_target_trial",NA
"393","full_sample","36DSNE9QZ5YXEOMJKUIF8206M7XOJS",0,1815.63999998616,"appearance",2,238,234,140,"10Y9/6","color-picker",109,556479,"block2_target_trial",NA
"394","full_sample","36DSNE9QZ5YXEOMJKUIF8206M7XOJS",0,3114.36999996658,"shampoo",27,29,194,202,"10BG7/8","color-picker",111,564448,"block2_target_trial",NA
"395","full_sample","3CTOC39K37QQTIUK381DXGEBWINJ7X",0,22556.7150000134,"bone",0,245,225,219,"10R9/2","color-picker",83,581538,"block2_target_trial",NA
"396","full_sample","36DSNE9QZ5YXEOMJKUIF8206M7XOJS",0,3883.60000000102,"loyal",2,238,234,140,"10Y9/6","color-picker",113,573562,"block2_target_trial",NA
"397","full_sample","36DSNE9QZ5YXEOMJKUIF8206M7XOJS",0,2854.80500000995,"excitement",7,229,228,239,"10PB9/2","color-picker",115,580731,"block2_target_trial",NA
"398","full_sample","3CTOC39K37QQTIUK381DXGEBWINJ7X",0,8884.9249999621,"gloom",68,76,74,29,"10Y3/4","color-picker",85,593882,"block2_target_trial",NA
"399","full_sample","36DSNE9QZ5YXEOMJKUIF8206M7XOJS",0,3355.70499999449,"sadness",80,46,52,38,"5GY2/2","color-picker",117,588490,"block2_target_trial",NA
"400","full_sample","36DSNE9QZ5YXEOMJKUIF8206M7XOJS",0,2135.76500001363,"boat",3,200,241,191,"10GY9/4","color-picker",119,595310,"block2_target_trial",NA
"401","full_sample","3KIBXJ1WD5USP8S12FIR9H0J1WXOKR",0,5017.91000000958,"rock",43,163,162,162,"N6","color-picker",119,628372,"block2_target_trial",NA
"402","full_sample","3CTOC39K37QQTIUK381DXGEBWINJ7X",0,9444.62000002386,"desire",75,139,23,66,"10RP3/10","color-picker",87,606826,"block2_target_trial",NA
"403","full_sample","3KIBXJ1WD5USP8S12FIR9H0J1WXOKR",0,1928.15000000701,"fish",21,202,202,202,"N8","color-picker",121,632408,"block2_target_trial",NA
"404","full_sample","36DSNE9QZ5YXEOMJKUIF8206M7XOJS",0,1966.6449999786,"belt",2,238,234,140,"10Y9/6","color-picker",121,601960,"block2_target_trial",NA
"405","full_sample","3KIBXJ1WD5USP8S12FIR9H0J1WXOKR",0,3383.62499998766,"relief",13,252,190,0,"5Y8/14","color-picker",123,639245,"block2_target_trial",NA
"406","full_sample","36DSNE9QZ5YXEOMJKUIF8206M7XOJS",0,3721.04999999283,"romance",62,0,113,178,"5PB4/12","color-picker",123,610109,"block2_target_trial",NA
"407","full_sample","3KIBXJ1WD5USP8S12FIR9H0J1WXOKR",0,1972.85499999998,"fork",21,202,202,202,"N8","color-picker",125,643363,"block2_target_trial",NA
"408","full_sample","36DSNE9QZ5YXEOMJKUIF8206M7XOJS",0,1826.09500002582,"staple",3,200,241,191,"10GY9/4","color-picker",125,616160,"block2_target_trial",NA
"409","full_sample","3KIBXJ1WD5USP8S12FIR9H0J1WXOKR",0,9019.3350000045,"excitement",13,252,190,0,"5Y8/14","color-picker",127,654859,"block2_target_trial",NA
"410","full_sample","3AAJC4I4FGS9DS0QM3TWO07A6B1JZQ",0,4062.70500004757,"green",47,54,142,15,"10GY5/12","color-picker",8,41529,"color_trial",NA
"411","full_sample","36DSNE9QZ5YXEOMJKUIF8206M7XOJS",0,7013.63499998115,"fork",15,135,220,178,"5G8/6","color-picker",127,627328,"block2_target_trial",NA
"412","full_sample","3KIBXJ1WD5USP8S12FIR9H0J1WXOKR",0,1724.13499999675,"gloom",21,202,202,202,"N8","color-picker",129,659877,"block2_target_trial",NA
"413","full_sample","3CTOC39K37QQTIUK381DXGEBWINJ7X",0,22996.6399999685,"tarantula",87,59,58,58,"N2","color-picker",89,638426,"block2_target_trial",NA
"414","full_sample","3AAJC4I4FGS9DS0QM3TWO07A6B1JZQ",0,6707.53000001423,"blue",62,0,113,178,"5PB4/12","color-picker",9,48740,"catch_trial_color_trials",NA
"415","full_sample","36DSNE9QZ5YXEOMJKUIF8206M7XOJS",0,1855.43499997584,"barley",4,203,237,224,"10G9/2","color-picker",129,633912,"block2_target_trial",NA
"416","full_sample","3CTOC39K37QQTIUK381DXGEBWINJ7X",0,3437.16500001028,"success",15,135,220,178,"5G8/6","color-picker",91,645241,"block2_target_trial",NA
"417","full_sample","3KIBXJ1WD5USP8S12FIR9H0J1WXOKR",0,6307.49999999534,"divinity",13,252,190,0,"5Y8/14","color-picker",131,669172,"block2_target_trial",NA
"418","full_sample","3AAJC4I4FGS9DS0QM3TWO07A6B1JZQ",0,3913.47999998834,"yellow",2,238,234,140,"10Y9/6","color-picker",10,53158,"color_trial",NA
"419","full_sample","36DSNE9QZ5YXEOMJKUIF8206M7XOJS",0,2275.34499997273,"robin",5,205,236,235,"10BG9/2","color-picker",131,640552,"block2_target_trial",NA
"420","full_sample","3AAJC4I4FGS9DS0QM3TWO07A6B1JZQ",0,2261.95499999449,"orange",23,244,150,0,"10YR7/14","color-picker",11,55922,"color_trial",NA
"421","full_sample","3KIBXJ1WD5USP8S12FIR9H0J1WXOKR",0,2411.87999999966,"barley",47,54,142,15,"10GY5/12","color-picker",133,675890,"block2_target_trial",NA
"422","full_sample","3CTOC39K37QQTIUK381DXGEBWINJ7X",0,7404.99999996973,"sadness",4,203,237,224,"10G9/2","color-picker",93,655641,"block2_target_trial",NA
"423","full_sample","3AAJC4I4FGS9DS0QM3TWO07A6B1JZQ",0,4550.30000000261,"red",55,190,26,52,"5R4/14","color-picker",12,60977,"catch_trial_color_trials",NA
"424","full_sample","36DSNE9QZ5YXEOMJKUIF8206M7XOJS",0,1634.9250000203,"chalk",3,200,241,191,"10GY9/4","color-picker",133,646011,"block2_target_trial",NA
"425","full_sample","3AAJC4I4FGS9DS0QM3TWO07A6B1JZQ",0,3877.75500002317,"purple",85,73,31,87,"5P2/8","color-picker",13,65359,"color_trial",NA
"426","full_sample","3KIBXJ1WD5USP8S12FIR9H0J1WXOKR",0,2649.35500000138,"pain",44,216,65,0,"10R5/16","color-picker",135,682489,"block2_target_trial",NA
"427","full_sample","36DSNE9QZ5YXEOMJKUIF8206M7XOJS",0,1614.00999996113,"optimism",4,203,237,224,"10G9/2","color-picker",135,651410,"block2_target_trial",NA
"428","full_sample","3AAJC4I4FGS9DS0QM3TWO07A6B1JZQ",0,2144.02499998687,"pink",20,246,186,205,"5RP8/6","color-picker",14,68006,"color_trial",NA
"429","full_sample","3KIBXJ1WD5USP8S12FIR9H0J1WXOKR",0,1535.14999999607,"bone",10,233,232,231,"N9","color-picker",137,686360,"block2_target_trial",NA
"430","full_sample","3CTOC39K37QQTIUK381DXGEBWINJ7X",0,6948.21000000229,"lemon",2,238,234,140,"10Y9/6","color-picker",95,665801,"block2_target_trial",NA
"431","full_sample","3AAJC4I4FGS9DS0QM3TWO07A6B1JZQ",0,2951.39000000199,"computer",87,59,58,58,"N2","color-picker",16,72672,"block1_target_trial",NA
"432","full_sample","36DSNE9QZ5YXEOMJKUIF8206M7XOJS",0,2195.84499998018,"ache",3,200,241,191,"10GY9/4","color-picker",137,657630,"block2_target_trial",NA
"433","full_sample","3AAJC4I4FGS9DS0QM3TWO07A6B1JZQ",0,2648.27000000514,"belt",78,75,41,23,"5YR2/4","color-picker",17,75824,"block1_target_trial",NA
"434","full_sample","3AAJC4I4FGS9DS0QM3TWO07A6B1JZQ",0,4429.27000002237,"urge",55,190,26,52,"5R4/14","color-picker",18,80758,"block1_target_trial",NA
"435","full_sample","3AAJC4I4FGS9DS0QM3TWO07A6B1JZQ",0,1977.57499996806,"staple",10,233,232,231,"N9","color-picker",19,83238,"block1_target_trial",NA
"436","full_sample","3CTOC39K37QQTIUK381DXGEBWINJ7X",0,8895.14000003692,"playfulness",14,184,216,68,"5GY8/10","color-picker",97,679369,"block2_target_trial",NA
"437","full_sample","3JRJSWSMQHL0HJ75NVNWNJP3M86E33",0,9481.99999995995,"blue",72,0,79,142,"10B3/10","color-picker",8,74806,"catch_trial_color_trials",NA
"438","full_sample","3AAJC4I4FGS9DS0QM3TWO07A6B1JZQ",0,3465.51499998895,"faith",10,233,232,231,"N9","color-picker",20,87208,"block1_target_trial",NA
"439","full_sample","3AAJC4I4FGS9DS0QM3TWO07A6B1JZQ",0,2753.82000004174,"boat",50,0,146,196,"10B5/12","color-picker",21,90466,"block1_target_trial",NA
"440","full_sample","3AAJC4I4FGS9DS0QM3TWO07A6B1JZQ",0,2219.51500000432,"pain",55,190,26,52,"5R4/14","color-picker",22,93190,"block1_target_trial",NA
"441","full_sample","3JRJSWSMQHL0HJ75NVNWNJP3M86E33",0,9108.00000000745,"yellow",13,252,190,0,"5Y8/14","color-picker",9,84428,"color_trial",NA
"442","full_sample","3AAJC4I4FGS9DS0QM3TWO07A6B1JZQ",0,1903.59499998158,"blue",62,0,113,178,"5PB4/12","color-picker",23,95596,"block1_catch_trial",NA
"443","full_sample","3AAJC4I4FGS9DS0QM3TWO07A6B1JZQ",0,4073.73999996344,"barley",45,170,103,0,"10YR5/10","color-picker",24,100174,"block1_target_trial",NA
"444","full_sample","3JRJSWSMQHL0HJ75NVNWNJP3M86E33",0,8398.99999997579,"pink",52,181,89,164,"10P5/12","color-picker",10,93341,"color_trial",NA
"445","full_sample","3AAJC4I4FGS9DS0QM3TWO07A6B1JZQ",0,3744.20999997528,"toe",1,255,225,176,"10YR9/4","color-picker",25,104422,"block1_target_trial",NA
"446","full_sample","3JRJSWSMQHL0HJ75NVNWNJP3M86E33",0,2474.00000004563,"red",55,190,26,52,"5R4/14","color-picker",11,96330,"catch_trial_color_trials",NA
"447","full_sample","3JRJSWSMQHL0HJ75NVNWNJP3M86E33",0,2675.00000004657,"orange",34,231,111,0,"5YR6/14","color-picker",12,99519,"color_trial",NA
"448","full_sample","3AAJC4I4FGS9DS0QM3TWO07A6B1JZQ",0,7036.08499997063,"gloom",84,0,58,101,"5PB2/8","color-picker",26,111962,"block1_target_trial",NA
"449","full_sample","3CTOC39K37QQTIUK381DXGEBWINJ7X",0,24876.484999957,"fork",54,136,137,135,"N5","color-picker",99,707665,"block2_target_trial",NA
"450","full_sample","3JRJSWSMQHL0HJ75NVNWNJP3M86E33",0,2126.99999997858,"green",47,54,142,15,"10GY5/12","color-picker",13,102161,"color_trial",NA
"451","full_sample","3AAJC4I4FGS9DS0QM3TWO07A6B1JZQ",0,1921.87000002014,"success",13,252,190,0,"5Y8/14","color-picker",27,114388,"block1_target_trial",NA
"452","full_sample","3JRJSWSMQHL0HJ75NVNWNJP3M86E33",0,2068.00000002841,"purple",74,118,39,110,"10P3/10","color-picker",14,104741,"color_trial",NA
"453","full_sample","3CTOC39K37QQTIUK381DXGEBWINJ7X",0,1991.06999998912,"rose",66,137,34,17,"10R3/10","color-picker",101,713337,"block2_target_trial",NA
"454","full_sample","3AAJC4I4FGS9DS0QM3TWO07A6B1JZQ",0,4640.95500000985,"pheasant",21,202,202,202,"N8","color-picker",28,119531,"block1_target_trial",NA
"455","full_sample","3AAJC4I4FGS9DS0QM3TWO07A6B1JZQ",0,2665.76499998337,"fish",28,99,185,228,"10B7/8","color-picker",29,122700,"block1_target_trial",NA
"456","full_sample","3AAJC4I4FGS9DS0QM3TWO07A6B1JZQ",0,2748.87000001036,"chalk",10,233,232,231,"N9","color-picker",30,125951,"block1_target_trial",NA
"457","full_sample","3JRJSWSMQHL0HJ75NVNWNJP3M86E33",0,7489.0000000014,"bone",8,237,227,233,"10P9/2","color-picker",16,115369,"block1_target_trial",NA
"458","full_sample","3AAJC4I4FGS9DS0QM3TWO07A6B1JZQ",0,3775.09499998996,"divinity",10,233,232,231,"N9","color-picker",31,130229,"block1_target_trial",NA
"459","full_sample","3CTOC39K37QQTIUK381DXGEBWINJ7X",0,5627.70499999169,"heroism",87,59,58,58,"N2","color-picker",103,726152,"block2_target_trial",NA
"460","full_sample","3AAJC4I4FGS9DS0QM3TWO07A6B1JZQ",0,2009.16999997571,"rock",67,100,65,8,"10YR3/6","color-picker",32,132742,"block1_target_trial",NA
"461","full_sample","3AAJC4I4FGS9DS0QM3TWO07A6B1JZQ",0,2210.38999996381,"temptation",55,190,26,52,"5R4/14","color-picker",33,135455,"block1_target_trial",NA
"462","full_sample","3JRJSWSMQHL0HJ75NVNWNJP3M86E33",0,12328.9999999688,"heroism",13,252,190,0,"5Y8/14","color-picker",17,128212,"block1_target_trial",NA
"463","full_sample","3AAJC4I4FGS9DS0QM3TWO07A6B1JZQ",0,7101.07999999309,"excitement",2,238,234,140,"10Y9/6","color-picker",34,143060,"block1_target_trial",NA
"464","full_sample","32VNZTT0A74A8JVE9FCFWVGSFXSR4E",0,2574.32000001427,"green",47,54,142,15,"10GY5/12","color-picker",8,51440,"color_trial",NA
"465","full_sample","3AAJC4I4FGS9DS0QM3TWO07A6B1JZQ",0,2371.92499998491,"rose",33,239,107,106,"5R6/12","color-picker",35,145935,"block1_target_trial",NA
"466","full_sample","32VNZTT0A74A8JVE9FCFWVGSFXSR4E",0,1813.95500001963,"purple",73,79,58,135,"10PB3/10","color-picker",9,53761,"color_trial",NA
"467","full_sample","3AAJC4I4FGS9DS0QM3TWO07A6B1JZQ",0,2570.0899999938,"playfulness",13,252,190,0,"5Y8/14","color-picker",36,149008,"block1_target_trial",NA
"468","full_sample","32VNZTT0A74A8JVE9FCFWVGSFXSR4E",0,1794.01500002132,"orange",23,244,150,0,"10YR7/14","color-picker",10,56063,"color_trial",NA
"469","full_sample","32VNZTT0A74A8JVE9FCFWVGSFXSR4E",0,2226.93500001333,"blue",62,0,113,178,"5PB4/12","color-picker",11,58795,"catch_trial_color_trials",NA
"470","full_sample","3AAJC4I4FGS9DS0QM3TWO07A6B1JZQ",0,4479.21999997925,"energy",13,252,190,0,"5Y8/14","color-picker",37,153990,"block1_target_trial",NA
"471","full_sample","3AAJC4I4FGS9DS0QM3TWO07A6B1JZQ",0,3185.00499997754,"sun",23,244,150,0,"10YR7/14","color-picker",38,157677,"block1_target_trial",NA
"472","full_sample","32VNZTT0A74A8JVE9FCFWVGSFXSR4E",0,5131.26500000362,"red",66,137,34,17,"10R3/10","color-picker",12,64434,"catch_trial_color_trials",NA
"473","full_sample","3CTOC39K37QQTIUK381DXGEBWINJ7X",0,14977.5650000083,"pheasant",87,59,58,58,"N2","color-picker",105,753102,"block2_target_trial",NA
"474","full_sample","3AAJC4I4FGS9DS0QM3TWO07A6B1JZQ",0,2219.44499999518,"relief",17,158,211,223,"5B8/4","color-picker",39,160400,"block1_target_trial",NA
"475","full_sample","3JRJSWSMQHL0HJ75NVNWNJP3M86E33",0,21304.999999993,"urge",34,231,111,0,"5YR6/14","color-picker",18,150029,"block1_target_trial",NA
"476","full_sample","3AAJC4I4FGS9DS0QM3TWO07A6B1JZQ",0,1742.93500004569,"bone",10,233,232,231,"N9","color-picker",40,162646,"block1_target_trial",NA
"477","full_sample","32VNZTT0A74A8JVE9FCFWVGSFXSR4E",0,5262.64499998069,"pink",20,246,186,205,"5RP8/6","color-picker",13,70204,"color_trial",NA
"478","full_sample","3Z2R0DQ0JHEBW1BMJV9R49KBGU6E2S",0,4890.99999982864,"pink",31,238,151,162,"10RP7/8","color-picker",8,110497,"color_trial",NA
"479","full_sample","3JRJSWSMQHL0HJ75NVNWNJP3M86E33",0,4094.99999997206,"desire",47,54,142,15,"10GY5/12","color-picker",19,154640,"block1_target_trial",NA
"480","full_sample","3CTOC39K37QQTIUK381DXGEBWINJ7X",0,3428.92999999458,"pain",55,190,26,52,"5R4/14","color-picker",107,760737,"block2_target_trial",NA
"481","full_sample","3AAJC4I4FGS9DS0QM3TWO07A6B1JZQ",0,3601.40499996487,"romance",55,190,26,52,"5R4/14","color-picker",41,166750,"block1_target_trial",NA
"482","full_sample","32VNZTT0A74A8JVE9FCFWVGSFXSR4E",0,3728.13500001212,"yellow",13,252,190,0,"5Y8/14","color-picker",14,74437,"color_trial",NA
"483","full_sample","3Z2R0DQ0JHEBW1BMJV9R49KBGU6E2S",0,3854.99999998137,"orange",44,216,65,0,"10R5/16","color-picker",9,114860,"color_trial",NA
"484","full_sample","3JRJSWSMQHL0HJ75NVNWNJP3M86E33",0,3788.00000000047,"temptation",55,190,26,52,"5R4/14","color-picker",20,158939,"block1_target_trial",NA
"485","full_sample","3AAJC4I4FGS9DS0QM3TWO07A6B1JZQ",0,2766.73999999184,"heaven",10,233,232,231,"N9","color-picker",42,170020,"block1_target_trial",NA
"486","full_sample","3Z2R0DQ0JHEBW1BMJV9R49KBGU6E2S",0,2404.99999979511,"blue",62,0,113,178,"5PB4/12","color-picker",10,117771,"catch_trial_color_trials",NA
"487","full_sample","3CTOC39K37QQTIUK381DXGEBWINJ7X",0,2342.75499999058,"temptation",26,64,196,164,"10G7/8","color-picker",109,766275,"block2_target_trial",NA
"488","full_sample","32VNZTT0A74A8JVE9FCFWVGSFXSR4E",0,3025.52500000456,"barley",56,146,80,27,"5YR4/8","color-picker",16,78874,"block1_target_trial",NA
"489","full_sample","3AAJC4I4FGS9DS0QM3TWO07A6B1JZQ",0,2163.30499999458,"appearance",5,205,236,235,"10BG9/2","color-picker",43,172686,"block1_target_trial",NA
"490","full_sample","3Z2R0DQ0JHEBW1BMJV9R49KBGU6E2S",0,3339.00000015274,"yellow",13,252,190,0,"5Y8/14","color-picker",11,121622,"color_trial",NA
"491","full_sample","3AAJC4I4FGS9DS0QM3TWO07A6B1JZQ",0,2070.29500004137,"desire",55,190,26,52,"5R4/14","color-picker",44,175259,"block1_target_trial",NA
"492","full_sample","32VNZTT0A74A8JVE9FCFWVGSFXSR4E",0,2641.41499999096,"loyal",28,99,185,228,"10B7/8","color-picker",17,82025,"block1_target_trial",NA
"493","full_sample","3Z2R0DQ0JHEBW1BMJV9R49KBGU6E2S",0,4041.99999989942,"red",55,190,26,52,"5R4/14","color-picker",12,126191,"catch_trial_color_trials",NA
"494","full_sample","32VNZTT0A74A8JVE9FCFWVGSFXSR4E",0,4028.7299999909,"belt",79,56,49,32,"5Y2/2","color-picker",18,86559,"block1_target_trial",NA
"495","full_sample","3AAJC4I4FGS9DS0QM3TWO07A6B1JZQ",0,4438.36000002921,"mansion",13,252,190,0,"5Y8/14","color-picker",45,180201,"block1_target_trial",NA
"496","full_sample","3JRJSWSMQHL0HJ75NVNWNJP3M86E33",0,10097.0000000088,"fork",55,190,26,52,"5R4/14","color-picker",21,169550,"block1_target_trial",NA
"497","full_sample","32VNZTT0A74A8JVE9FCFWVGSFXSR4E",0,1876.86499999836,"sun",2,238,234,140,"10Y9/6","color-picker",19,88944,"block1_target_trial",NA
"498","full_sample","3JRJSWSMQHL0HJ75NVNWNJP3M86E33",0,3103.99999999208,"gloom",47,54,142,15,"10GY5/12","color-picker",22,173170,"block1_target_trial",NA
"499","full_sample","3AAJC4I4FGS9DS0QM3TWO07A6B1JZQ",0,3451.86500001,"lemon",2,238,234,140,"10Y9/6","color-picker",46,184155,"block1_target_trial",NA
"500","full_sample","3Z2R0DQ0JHEBW1BMJV9R49KBGU6E2S",0,5311.99999991804,"purple",52,181,89,164,"10P5/12","color-picker",13,132029,"color_trial",NA
"501","full_sample","32VNZTT0A74A8JVE9FCFWVGSFXSR4E",0,3055.30000000726,"faith",6,216,232,240,"10B9/2","color-picker",20,92506,"block1_target_trial",NA
"502","full_sample","3AAJC4I4FGS9DS0QM3TWO07A6B1JZQ",0,1846.71999997227,"tarantula",87,59,58,58,"N2","color-picker",47,186506,"block1_target_trial",NA
"503","full_sample","32VNZTT0A74A8JVE9FCFWVGSFXSR4E",0,2540.34000000684,"ache",87,59,58,58,"N2","color-picker",21,95552,"block1_target_trial",NA
"504","full_sample","3AAJC4I4FGS9DS0QM3TWO07A6B1JZQ",0,2403.64000003319,"ache",55,190,26,52,"5R4/14","color-picker",48,189412,"block1_target_trial",NA
"505","full_sample","3JRJSWSMQHL0HJ75NVNWNJP3M86E33",0,5539.00000004796,"romance",53,218,64,108,"10RP5/14","color-picker",23,179219,"block1_target_trial",NA
"506","full_sample","3Z2R0DQ0JHEBW1BMJV9R49KBGU6E2S",0,4456.99999993667,"green",47,54,142,15,"10GY5/12","color-picker",14,136994,"color_trial",NA
"507","full_sample","32VNZTT0A74A8JVE9FCFWVGSFXSR4E",0,2419.53000001376,"divinity",47,54,142,15,"10GY5/12","color-picker",22,98478,"block1_target_trial",NA
"508","full_sample","32VNZTT0A74A8JVE9FCFWVGSFXSR4E",0,2653.34499999881,"desire",44,216,65,0,"10R5/16","color-picker",23,101637,"block1_target_trial",NA
"509","full_sample","3CTOC39K37QQTIUK381DXGEBWINJ7X",0,12484.8399999901,"chalk",29,173,169,229,"10PB7/8","color-picker",111,789665,"block2_target_trial",NA
"510","full_sample","3JRJSWSMQHL0HJ75NVNWNJP3M86E33",0,5525.99999995437,"fish",13,252,190,0,"5Y8/14","color-picker",24,185269,"block1_target_trial",NA
"511","full_sample","3AAJC4I4FGS9DS0QM3TWO07A6B1JZQ",0,6718.64000003552,"heroism",13,252,190,0,"5Y8/14","color-picker",49,196634,"block1_target_trial",NA
"512","full_sample","32VNZTT0A74A8JVE9FCFWVGSFXSR4E",0,3891.20500002173,"success",25,103,196,96,"10GY7/10","color-picker",24,106034,"block1_target_trial",NA
"513","full_sample","3AAJC4I4FGS9DS0QM3TWO07A6B1JZQ",0,2865.82499998622,"robin",62,0,113,178,"5PB4/12","color-picker",50,200003,"block1_target_trial",NA
"514","full_sample","3CTOC39K37QQTIUK381DXGEBWINJ7X",0,2381.35000003967,"staple",87,59,58,58,"N2","color-picker",113,795505,"block2_target_trial",NA
"515","full_sample","3AAJC4I4FGS9DS0QM3TWO07A6B1JZQ",0,2095.51499999361,"loyal",13,252,190,0,"5Y8/14","color-picker",51,202602,"block1_target_trial",NA
"516","full_sample","3JRJSWSMQHL0HJ75NVNWNJP3M86E33",0,6302.00000002515,"playfulness",53,218,64,108,"10RP5/14","color-picker",25,192090,"block1_target_trial",NA
"517","full_sample","32VNZTT0A74A8JVE9FCFWVGSFXSR4E",0,3343.77500001574,"romance",44,216,65,0,"10R5/16","color-picker",25,109888,"block1_target_trial",NA
"518","full_sample","3CTOC39K37QQTIUK381DXGEBWINJ7X",0,2197.0100000035,"computer",25,103,196,96,"10GY7/10","color-picker",115,800728,"block2_target_trial",NA
"519","full_sample","32VNZTT0A74A8JVE9FCFWVGSFXSR4E",0,4340.73999998509,"playfulness",12,255,186,123,"5YR8/8","color-picker",26,114736,"block1_target_trial",NA
"520","full_sample","3AAJC4I4FGS9DS0QM3TWO07A6B1JZQ",0,5525.32499999506,"optimism",18,173,204,247,"5PB8/6","color-picker",52,208631,"block1_target_trial",NA
"521","full_sample","3JRJSWSMQHL0HJ75NVNWNJP3M86E33",0,6121.99999997392,"energy",13,252,190,0,"5Y8/14","color-picker",26,198723,"block1_target_trial",NA
"522","full_sample","3AAJC4I4FGS9DS0QM3TWO07A6B1JZQ",0,1450.00499999151,"fork",32,181,182,181,"N7","color-picker",53,210584,"block1_target_trial",NA
"523","full_sample","32VNZTT0A74A8JVE9FCFWVGSFXSR4E",0,2230.16999999527,"boat",21,202,202,202,"N8","color-picker",27,117476,"block1_target_trial",NA
"524","full_sample","3CTOC39K37QQTIUK381DXGEBWINJ7X",0,3788.56999997515,"boat",40,96,151,219,"5PB6/10","color-picker",117,807184,"block2_target_trial",NA
"525","full_sample","32VNZTT0A74A8JVE9FCFWVGSFXSR4E",0,1475.34500001348,"rose",20,246,186,205,"5RP8/6","color-picker",28,119456,"block1_target_trial",NA
"526","full_sample","3AAJC4I4FGS9DS0QM3TWO07A6B1JZQ",0,3008.78999999259,"sadness",84,0,58,101,"5PB2/8","color-picker",54,214096,"block1_target_trial",NA
"527","full_sample","3JRJSWSMQHL0HJ75NVNWNJP3M86E33",0,4021.00000000792,"ache",55,190,26,52,"5R4/14","color-picker",27,203255,"block1_target_trial",NA
"528","full_sample","32VNZTT0A74A8JVE9FCFWVGSFXSR4E",0,3611.74000002211,"pheasant",82,0,62,57,"5BG2/6","color-picker",29,123577,"block1_target_trial",NA
"529","full_sample","3JRJSWSMQHL0HJ75NVNWNJP3M86E33",0,2332.99999998417,"sun",13,252,190,0,"5Y8/14","color-picker",28,206099,"block1_target_trial",NA
"530","full_sample","3CTOC39K37QQTIUK381DXGEBWINJ7X",0,2580.88500000304,"faith",12,255,186,123,"5YR8/8","color-picker",119,812240,"block2_target_trial",NA
"531","full_sample","3AAJC4I4FGS9DS0QM3TWO07A6B1JZQ",0,4983.52499998873,"corpse",58,93,100,0,"5GY4/8","color-picker",55,219582,"block1_target_trial",NA
"532","full_sample","32VNZTT0A74A8JVE9FCFWVGSFXSR4E",0,2646.39999999781,"temptation",53,218,64,108,"10RP5/14","color-picker",30,126729,"block1_target_trial",NA
"533","full_sample","3JRJSWSMQHL0HJ75NVNWNJP3M86E33",0,2494.99999999534,"blue",62,0,113,178,"5PB4/12","color-picker",29,209110,"block1_catch_trial",NA
"534","full_sample","32VNZTT0A74A8JVE9FCFWVGSFXSR4E",0,2080.05500002764,"lemon",2,238,234,140,"10Y9/6","color-picker",31,129315,"block1_target_trial",NA
"535","full_sample","3AAJC4I4FGS9DS0QM3TWO07A6B1JZQ",0,2604.98000000371,"shampoo",5,205,236,235,"10BG9/2","color-picker",56,222689,"block1_target_trial",NA
"536","full_sample","3CTOC39K37QQTIUK381DXGEBWINJ7X",0,2749.00500004878,"sun",2,238,234,140,"10Y9/6","color-picker",121,817800,"block2_target_trial",NA
"537","full_sample","32VNZTT0A74A8JVE9FCFWVGSFXSR4E",0,1993.71000000974,"fork",10,233,232,231,"N9","color-picker",32,131812,"block1_target_trial",NA
"538","full_sample","3JRJSWSMQHL0HJ75NVNWNJP3M86E33",0,4556.99999997159,"rose",53,218,64,108,"10RP5/14","color-picker",30,214180,"block1_target_trial",NA
"539","full_sample","32VNZTT0A74A8JVE9FCFWVGSFXSR4E",0,3672.85999999149,"optimism",80,46,52,38,"5GY2/2","color-picker",33,135993,"block1_target_trial",NA
"540","full_sample","3JRJSWSMQHL0HJ75NVNWNJP3M86E33",0,3599.00000004563,"computer",87,59,58,58,"N2","color-picker",31,218291,"block1_target_trial",NA
"541","full_sample","3JRJSWSMQHL0HJ75NVNWNJP3M86E33",0,2836.99999999953,"success",23,244,150,0,"10YR7/14","color-picker",32,221639,"block1_target_trial",NA
"542","full_sample","3AAJC4I4FGS9DS0QM3TWO07A6B1JZQ",0,5833.41500000097,"shampoo",5,205,236,235,"10BG9/2","color-picker",58,233034,"block2_target_trial",NA
"543","full_sample","3CTOC39K37QQTIUK381DXGEBWINJ7X",0,1981.05000000214,"relief",6,216,232,240,"10B9/2","color-picker",123,828408,"block2_target_trial",NA
"544","full_sample","32VNZTT0A74A8JVE9FCFWVGSFXSR4E",0,4595.39499998209,"robin",44,216,65,0,"10R5/16","color-picker",34,141094,"block1_target_trial",NA
"545","full_sample","3JRJSWSMQHL0HJ75NVNWNJP3M86E33",0,2385.9999999986,"lemon",2,238,234,140,"10Y9/6","color-picker",33,224536,"block1_target_trial",NA
"546","full_sample","32VNZTT0A74A8JVE9FCFWVGSFXSR4E",0,3460.56000000681,"tarantula",87,59,58,58,"N2","color-picker",35,145061,"block1_target_trial",NA
"547","full_sample","3JRJSWSMQHL0HJ75NVNWNJP3M86E33",0,3030.00000002794,"barley",30,218,156,201,"10P7/8","color-picker",34,228080,"block1_target_trial",NA
"548","full_sample","3AAJC4I4FGS9DS0QM3TWO07A6B1JZQ",0,1699.05000005383,"playfulness",13,252,190,0,"5Y8/14","color-picker",60,240332,"block2_target_trial",NA
"549","full_sample","3JRJSWSMQHL0HJ75NVNWNJP3M86E33",0,2310.99999998696,"appearance",30,218,156,201,"10P7/8","color-picker",35,230904,"block1_target_trial",NA
"550","full_sample","32VNZTT0A74A8JVE9FCFWVGSFXSR4E",0,5747.37999998615,"relief",28,99,185,228,"10B7/8","color-picker",36,151312,"block1_target_trial",NA
"551","full_sample","32VNZTT0A74A8JVE9FCFWVGSFXSR4E",0,4058.93999998807,"sadness",79,56,49,32,"5Y2/2","color-picker",37,155878,"block1_target_trial",NA
"552","full_sample","3JRJSWSMQHL0HJ75NVNWNJP3M86E33",0,6787.00000001118,"sadness",31,238,151,162,"10RP7/8","color-picker",36,238201,"block1_target_trial",NA
"553","full_sample","32VNZTT0A74A8JVE9FCFWVGSFXSR4E",0,1736.11499997787,"corpse",79,56,49,32,"5Y2/2","color-picker",38,158119,"block1_target_trial",NA
"554","full_sample","3CTOC39K37QQTIUK381DXGEBWINJ7X",0,12851.4199999627,"toe",78,75,41,23,"5YR2/4","color-picker",125,846768,"block2_target_trial",NA
"555","full_sample","3JRJSWSMQHL0HJ75NVNWNJP3M86E33",0,2722.00000000885,"robin",31,238,151,162,"10RP7/8","color-picker",37,241438,"block1_target_trial",NA
"556","full_sample","3AAJC4I4FGS9DS0QM3TWO07A6B1JZQ",0,1687.22500000149,"tarantula",87,59,58,58,"N2","color-picker",62,253243,"block2_target_trial",NA
"557","full_sample","32VNZTT0A74A8JVE9FCFWVGSFXSR4E",0,3975.39000000688,"bone",56,146,80,27,"5YR4/8","color-picker",39,162602,"block1_target_trial",NA
"558","full_sample","3JRJSWSMQHL0HJ75NVNWNJP3M86E33",0,2982.99999994924,"divinity",18,173,204,247,"5PB8/6","color-picker",38,244932,"block1_target_trial",NA
"559","full_sample","3CTOC39K37QQTIUK381DXGEBWINJ7X",0,3533.24499999871,"loyal",27,29,194,202,"10BG7/8","color-picker",127,853248,"block2_target_trial",NA
"560","full_sample","3JRJSWSMQHL0HJ75NVNWNJP3M86E33",0,2899.00000003399,"relief",18,173,204,247,"5PB8/6","color-picker",39,248340,"block1_target_trial",NA
"561","full_sample","32VNZTT0A74A8JVE9FCFWVGSFXSR4E",0,3571.25999999698,"appearance",67,100,65,8,"10YR3/6","color-picker",40,166680,"block1_target_trial",NA
"562","full_sample","3NXNZ5RS1AX1N6HBHWA08M080DC97T",0,17166.8700000155,"red",44,216,65,0,"10R5/16","color-picker",8,171978,"catch_trial_color_trials",NA
"563","full_sample","3AAJC4I4FGS9DS0QM3TWO07A6B1JZQ",0,4011.78499998059,"heaven",10,233,232,231,"N9","color-picker",64,261772,"block2_target_trial",NA
"564","full_sample","32VNZTT0A74A8JVE9FCFWVGSFXSR4E",0,3025.23500000825,"heaven",2,238,234,140,"10Y9/6","color-picker",41,170212,"block1_target_trial",NA
"565","full_sample","3NXNZ5RS1AX1N6HBHWA08M080DC97T",0,2121.28500000108,"green",47,54,142,15,"10GY5/12","color-picker",9,174607,"color_trial",NA
"566","full_sample","3JRJSWSMQHL0HJ75NVNWNJP3M86E33",0,5665.99999996834,"faith",18,173,204,247,"5PB8/6","color-picker",40,254518,"block1_target_trial",NA
"567","full_sample","32VNZTT0A74A8JVE9FCFWVGSFXSR4E",0,2578.9550000045,"staple",32,181,182,181,"N7","color-picker",42,173299,"block1_target_trial",NA
"568","full_sample","33JKGHPFYCU5XBSSMCVU95SI0ROMNG",0,6091.83500002837,"green",47,54,142,15,"10GY5/12","color-picker",8,37973,"color_trial",NA
"569","full_sample","3AAJC4I4FGS9DS0QM3TWO07A6B1JZQ",0,2191.58000004245,"belt",67,100,65,8,"10YR3/6","color-picker",66,267760,"block2_target_trial",NA
"570","full_sample","3NXNZ5RS1AX1N6HBHWA08M080DC97T",0,4053.32499998622,"yellow",13,252,190,0,"5Y8/14","color-picker",10,179170,"color_trial",NA
"571","full_sample","3CTOC39K37QQTIUK381DXGEBWINJ7X",0,8732.03499999363,"barley",47,54,142,15,"10GY5/12","color-picker",129,864887,"block2_target_trial",NA
"572","full_sample","3JRJSWSMQHL0HJ75NVNWNJP3M86E33",0,4869.99999999534,"toe",18,173,204,247,"5PB8/6","color-picker",41,259899,"block1_target_trial",NA
"573","full_sample","33JKGHPFYCU5XBSSMCVU95SI0ROMNG",0,4359.49000000255,"blue",72,0,79,142,"10B3/10","color-picker",9,42840,"catch_trial_color_trials",NA
"574","full_sample","3AAJC4I4FGS9DS0QM3TWO07A6B1JZQ",0,1459.15499998955,"sun",23,244,150,0,"10YR7/14","color-picker",68,272731,"block2_target_trial",NA
"575","full_sample","32VNZTT0A74A8JVE9FCFWVGSFXSR4E",0,6801.23000001186,"shampoo",7,229,228,239,"10PB9/2","color-picker",43,180604,"block1_target_trial",NA
"576","full_sample","3JRJSWSMQHL0HJ75NVNWNJP3M86E33",0,2680.9999999823,"heaven",25,103,196,96,"10GY7/10","color-picker",42,263092,"block1_target_trial",NA
"577","full_sample","3NXNZ5RS1AX1N6HBHWA08M080DC97T",0,5849.48500001337,"orange",34,231,111,0,"5YR6/14","color-picker",11,185529,"color_trial",NA
"578","full_sample","3JRJSWSMQHL0HJ75NVNWNJP3M86E33",0,2190.00000000233,"staple",15,135,220,178,"5G8/6","color-picker",43,265793,"block1_target_trial",NA
"579","full_sample","32VNZTT0A74A8JVE9FCFWVGSFXSR4E",0,2518.92499998212,"excitement",25,103,196,96,"10GY7/10","color-picker",44,183628,"block1_target_trial",NA
"580","full_sample","3AAJC4I4FGS9DS0QM3TWO07A6B1JZQ",0,2045.76000000816,"corpse",69,32,83,38,"10GY3/6","color-picker",70,277256,"block2_target_trial",NA
"581","full_sample","3NXNZ5RS1AX1N6HBHWA08M080DC97T",0,2724.91499996977,"purple",74,118,39,110,"10P3/10","color-picker",12,188766,"color_trial",NA
"582","full_sample","3CTOC39K37QQTIUK381DXGEBWINJ7X",0,6229.15999998804,"urge",29,173,169,229,"10PB7/8","color-picker",131,873519,"block2_target_trial",NA
"583","full_sample","33JKGHPFYCU5XBSSMCVU95SI0ROMNG",0,5814.25499997567,"pink",42,226,110,159,"5RP6/12","color-picker",10,49166,"color_trial",NA
"584","full_sample","32VNZTT0A74A8JVE9FCFWVGSFXSR4E",0,1782.07500002463,"pain",80,46,52,38,"5GY2/2","color-picker",45,185917,"block1_target_trial",NA
"585","full_sample","3JRJSWSMQHL0HJ75NVNWNJP3M86E33",0,3065.99999999162,"boat",2,238,234,140,"10Y9/6","color-picker",44,269369,"block1_target_trial",NA
"586","full_sample","33JKGHPFYCU5XBSSMCVU95SI0ROMNG",0,2092.64499996789,"purple",85,73,31,87,"5P2/8","color-picker",11,51765,"color_trial",NA
"587","full_sample","3NXNZ5RS1AX1N6HBHWA08M080DC97T",0,3387.02500000363,"pink",11,254,185,179,"5R8/6","color-picker",13,192660,"color_trial",NA
"588","full_sample","32VNZTT0A74A8JVE9FCFWVGSFXSR4E",0,2945.62000001315,"chalk",42,226,110,159,"5RP6/12","color-picker",46,189365,"block1_target_trial",NA
"589","full_sample","3JRJSWSMQHL0HJ75NVNWNJP3M86E33",0,3048.99999999907,"corpse",18,173,204,247,"5PB8/6","color-picker",45,272929,"block1_target_trial",NA
"590","full_sample","3VNXK88KKCI3YWI7ZUDGE0GBMVJV97",0,9834.43500008434,"red",55,190,26,52,"5R4/14","color-picker",8,58462,"catch_trial_color_trials",NA
"591","full_sample","3NXNZ5RS1AX1N6HBHWA08M080DC97T",0,2348.59499998856,"blue",62,0,113,178,"5PB4/12","color-picker",14,195519,"catch_trial_color_trials",NA
"592","full_sample","3AAJC4I4FGS9DS0QM3TWO07A6B1JZQ",0,1764.88999999128,"desire",55,190,26,52,"5R4/14","color-picker",72,284995,"block2_target_trial",NA
"593","full_sample","32VNZTT0A74A8JVE9FCFWVGSFXSR4E",0,2679.03999998816,"blue",72,0,79,142,"10B3/10","color-picker",47,192550,"block1_catch_trial",NA
"594","full_sample","33JKGHPFYCU5XBSSMCVU95SI0ROMNG",0,4153.92499999143,"yellow",2,238,234,140,"10Y9/6","color-picker",12,56429,"color_trial",NA
"595","full_sample","33JKGHPFYCU5XBSSMCVU95SI0ROMNG",0,2063.28000000212,"orange",23,244,150,0,"10YR7/14","color-picker",13,59000,"color_trial",NA
"596","full_sample","3AAJC4I4FGS9DS0QM3TWO07A6B1JZQ",0,1547.26500000106,"lemon",2,238,234,140,"10Y9/6","color-picker",74,289287,"block2_target_trial",NA
"597","full_sample","32VNZTT0A74A8JVE9FCFWVGSFXSR4E",0,3583.24999999604,"mansion",66,137,34,17,"10R3/10","color-picker",48,196639,"block1_target_trial",NA
"598","full_sample","33JKGHPFYCU5XBSSMCVU95SI0ROMNG",0,2569.12499997998,"red",44,216,65,0,"10R5/16","color-picker",14,62075,"catch_trial_color_trials",NA
"599","full_sample","3AAJC4I4FGS9DS0QM3TWO07A6B1JZQ",0,1557.57000000449,"pain",55,190,26,52,"5R4/14","color-picker",76,293266,"block2_target_trial",NA
"600","full_sample","32VNZTT0A74A8JVE9FCFWVGSFXSR4E",0,3184.1050000221,"urge",44,216,65,0,"10R5/16","color-picker",49,200326,"block1_target_trial",NA
"601","full_sample","3NXNZ5RS1AX1N6HBHWA08M080DC97T",0,4656.33500000695,"robin",15,135,220,178,"5G8/6","color-picker",16,209278,"block1_target_trial",NA
"602","full_sample","33JKGHPFYCU5XBSSMCVU95SI0ROMNG",0,5436.67999998434,"mansion",10,233,232,231,"N9","color-picker",16,69442,"block1_target_trial",NA
"603","full_sample","32VNZTT0A74A8JVE9FCFWVGSFXSR4E",0,5377.44499999098,"fish",11,254,185,179,"5R8/6","color-picker",50,206208,"block1_target_trial",NA
"604","full_sample","3AAJC4I4FGS9DS0QM3TWO07A6B1JZQ",0,2346.77499998361,"fork",21,202,202,202,"N8","color-picker",78,299751,"block2_target_trial",NA
"605","full_sample","3CTOC39K37QQTIUK381DXGEBWINJ7X",0,2749.10999997519,"shampoo",13,252,190,0,"5Y8/14","color-picker",133,897159,"block2_target_trial",NA
"606","full_sample","3VNXK88KKCI3YWI7ZUDGE0GBMVJV97",0,18481.0250001028,"blue",62,0,113,178,"5PB4/12","color-picker",9,77448,"catch_trial_color_trials",NA
"607","full_sample","32VNZTT0A74A8JVE9FCFWVGSFXSR4E",0,3662.20000002068,"rock",79,56,49,32,"5Y2/2","color-picker",51,210377,"block1_target_trial",NA
"608","full_sample","3JRJSWSMQHL0HJ75NVNWNJP3M86E33",0,19592.0000000042,"chalk",28,99,185,228,"10B7/8","color-picker",46,293032,"block1_target_trial",NA
"609","full_sample","33JKGHPFYCU5XBSSMCVU95SI0ROMNG",0,4492.90499999188,"heaven",50,0,146,196,"10B5/12","color-picker",17,74447,"block1_target_trial",NA
"610","full_sample","3NXNZ5RS1AX1N6HBHWA08M080DC97T",0,5331.1049999902,"faith",7,229,228,239,"10PB9/2","color-picker",17,215128,"block1_target_trial",NA
"611","full_sample","33JKGHPFYCU5XBSSMCVU95SI0ROMNG",0,3450.8050000295,"energy",23,244,150,0,"10YR7/14","color-picker",18,78407,"block1_target_trial",NA
"612","full_sample","3AAJC4I4FGS9DS0QM3TWO07A6B1JZQ",0,4397.65499997884,"loyal",63,132,71,157,"5P4/12","color-picker",80,308170,"block2_target_trial",NA
"613","full_sample","32VNZTT0A74A8JVE9FCFWVGSFXSR4E",0,4413.93999999855,"computer",9,242,226,227,"10RP9/2","color-picker",52,215296,"block1_target_trial",NA
"614","full_sample","3NXNZ5RS1AX1N6HBHWA08M080DC97T",0,3757.84999999451,"heaven",18,173,204,247,"5PB8/6","color-picker",18,219392,"block1_target_trial",NA
"615","full_sample","3JRJSWSMQHL0HJ75NVNWNJP3M86E33",0,4397.9999999865,"pain",55,190,26,52,"5R4/14","color-picker",47,297949,"block1_target_trial",NA
"616","full_sample","32VNZTT0A74A8JVE9FCFWVGSFXSR4E",0,2131.55499999993,"gloom",43,163,162,162,"N6","color-picker",53,217932,"block1_target_trial",NA
"617","full_sample","3JRJSWSMQHL0HJ75NVNWNJP3M86E33",0,2207.99999998417,"loyal",51,124,112,186,"10PB5/10","color-picker",48,300670,"block1_target_trial",NA
"618","full_sample","3VNXK88KKCI3YWI7ZUDGE0GBMVJV97",0,8205.61999990605,"green",47,54,142,15,"10GY5/12","color-picker",10,86158,"color_trial",NA
"619","full_sample","33JKGHPFYCU5XBSSMCVU95SI0ROMNG",0,3237.89499996928,"excitement",44,216,65,0,"10R5/16","color-picker",19,82154,"block1_target_trial",NA
"620","full_sample","3NXNZ5RS1AX1N6HBHWA08M080DC97T",0,3001.1049999739,"rock",54,136,137,135,"N5","color-picker",19,222901,"block1_target_trial",NA
"621","full_sample","3AAJC4I4FGS9DS0QM3TWO07A6B1JZQ",0,1883.050000004,"gloom",84,0,58,101,"5PB2/8","color-picker",82,312859,"block2_target_trial",NA
"622","full_sample","32VNZTT0A74A8JVE9FCFWVGSFXSR4E",0,2208.70499999728,"energy",47,54,142,15,"10GY5/12","color-picker",54,220645,"block1_target_trial",NA
"623","full_sample","3Z2R0DQ0JHEBW1BMJV9R49KBGU6E2S",0,2933.00000019372,"tarantula",49,0,147,152,"10BG5/10","color-picker",16,261244,"block1_target_trial",NA
"624","full_sample","3JRJSWSMQHL0HJ75NVNWNJP3M86E33",0,2894.00000002934,"belt",51,124,112,186,"10PB5/10","color-picker",49,304079,"block1_target_trial",NA
"625","full_sample","33JKGHPFYCU5XBSSMCVU95SI0ROMNG",0,3705.82499995362,"tarantula",67,100,65,8,"10YR3/6","color-picker",20,86368,"block1_target_trial",NA
"626","full_sample","3NXNZ5RS1AX1N6HBHWA08M080DC97T",0,3870.40499999421,"rose",55,190,26,52,"5R4/14","color-picker",20,227276,"block1_target_trial",NA
"627","full_sample","3Z2R0DQ0JHEBW1BMJV9R49KBGU6E2S",0,1978.99999981746,"mansion",37,29,171,113,"5G6/10","color-picker",17,263734,"block1_target_trial",NA
"628","full_sample","32VNZTT0A74A8JVE9FCFWVGSFXSR4E",0,4163.59499999089,"heroism",28,99,185,228,"10B7/8","color-picker",55,225316,"block1_target_trial",NA
"629","full_sample","3NXNZ5RS1AX1N6HBHWA08M080DC97T",0,3494.36500004958,"romance",53,218,64,108,"10RP5/14","color-picker",21,231288,"block1_target_trial",NA
"630","full_sample","3Z2R0DQ0JHEBW1BMJV9R49KBGU6E2S",0,3424.00000011548,"playfulness",31,238,151,162,"10RP7/8","color-picker",18,267665,"block1_target_trial",NA
"631","full_sample","33JKGHPFYCU5XBSSMCVU95SI0ROMNG",0,5014.74000001326,"chalk",10,233,232,231,"N9","color-picker",21,91892,"block1_target_trial",NA
"632","full_sample","32VNZTT0A74A8JVE9FCFWVGSFXSR4E",0,2783.46999999485,"toe",45,170,103,0,"10YR5/10","color-picker",56,228608,"block1_target_trial",NA
"633","full_sample","3CTOC39K37QQTIUK381DXGEBWINJ7X",0,16884.9749999936,"ache",70,0,88,63,"10G3/8","color-picker",135,917359,"block2_target_trial",NA
"634","full_sample","3VNXK88KKCI3YWI7ZUDGE0GBMVJV97",0,10986.4250000101,"purple",63,132,71,157,"5P4/12","color-picker",11,97648,"color_trial",NA
"635","full_sample","3JRJSWSMQHL0HJ75NVNWNJP3M86E33",0,7705.0000000163,"mansion",39,0,174,198,"5B6/10","color-picker",50,312299,"block1_target_trial",NA
"636","full_sample","3NXNZ5RS1AX1N6HBHWA08M080DC97T",0,2548.50500001339,"shampoo",10,233,232,231,"N9","color-picker",22,234352,"block1_target_trial",NA
"637","full_sample","3AAJC4I4FGS9DS0QM3TWO07A6B1JZQ",0,2846.30999999354,"robin",62,0,113,178,"5PB4/12","color-picker",84,324111,"block2_target_trial",NA
"638","full_sample","3Z2R0DQ0JHEBW1BMJV9R49KBGU6E2S",0,2766.99999999255,"romance",20,246,186,205,"5RP8/6","color-picker",19,270939,"block1_target_trial",NA
"639","full_sample","33JKGHPFYCU5XBSSMCVU95SI0ROMNG",0,2472.96500002267,"barley",47,54,142,15,"10GY5/12","color-picker",22,94872,"block1_target_trial",NA
"640","full_sample","3JRJSWSMQHL0HJ75NVNWNJP3M86E33",0,1884.00000002002,"excitement",28,99,185,228,"10B7/8","color-picker",51,314702,"block1_target_trial",NA
"641","full_sample","3Z2R0DQ0JHEBW1BMJV9R49KBGU6E2S",0,2251.99999986216,"loyal",73,79,58,135,"10PB3/10","color-picker",20,273704,"block1_target_trial",NA
"642","full_sample","33JKGHPFYCU5XBSSMCVU95SI0ROMNG",0,2422.17000003438,"rose",55,190,26,52,"5R4/14","color-picker",23,97802,"block1_target_trial",NA
"643","full_sample","3JRJSWSMQHL0HJ75NVNWNJP3M86E33",0,1402.00000000186,"shampoo",28,99,185,228,"10B7/8","color-picker",52,316634,"block1_target_trial",NA
"644","full_sample","3NXNZ5RS1AX1N6HBHWA08M080DC97T",0,3629.83500002883,"boat",18,173,204,247,"5PB8/6","color-picker",23,238490,"block1_target_trial",NA
"645","full_sample","3VNXK88KKCI3YWI7ZUDGE0GBMVJV97",0,5273.51999981329,"orange",34,231,111,0,"5YR6/14","color-picker",12,103426,"color_trial",NA
"646","full_sample","3JRJSWSMQHL0HJ75NVNWNJP3M86E33",0,1472.99999999814,"tarantula",29,173,169,229,"10PB7/8","color-picker",53,318620,"block1_target_trial",NA
"647","full_sample","3NXNZ5RS1AX1N6HBHWA08M080DC97T",0,2405.49999999348,"appearance",1,255,225,176,"10YR9/4","color-picker",24,241412,"block1_target_trial",NA
"648","full_sample","3JRJSWSMQHL0HJ75NVNWNJP3M86E33",0,849.000000045635,"optimism",29,173,169,229,"10PB7/8","color-picker",54,320011,"block1_target_trial",NA
"649","full_sample","33JKGHPFYCU5XBSSMCVU95SI0ROMNG",0,3695.85499999812,"corpse",21,202,202,202,"N8","color-picker",24,102003,"block1_target_trial",NA
"650","full_sample","3AAJC4I4FGS9DS0QM3TWO07A6B1JZQ",0,4899.76500003831,"appearance",2,238,234,140,"10Y9/6","color-picker",86,332523,"block2_target_trial",NA
"651","full_sample","3JRJSWSMQHL0HJ75NVNWNJP3M86E33",0,1655.99999995902,"pheasant",26,64,196,164,"10G7/8","color-picker",55,322197,"block1_target_trial",NA
"652","full_sample","3NXNZ5RS1AX1N6HBHWA08M080DC97T",0,2414.59499998018,"gloom",65,107,108,107,"N4","color-picker",25,244332,"block1_target_trial",NA
"653","full_sample","33JKGHPFYCU5XBSSMCVU95SI0ROMNG",0,3154.27499997895,"loyal",58,93,100,0,"5GY4/8","color-picker",25,105673,"block1_target_trial",NA
"654","full_sample","3JRJSWSMQHL0HJ75NVNWNJP3M86E33",0,3761.99999998789,"rock",46,141,120,0,"10Y5/8","color-picker",56,326489,"block1_target_trial",NA
"655","full_sample","32VNZTT0A74A8JVE9FCFWVGSFXSR4E",0,4257.44000001578,"corpse",86,91,20,66,"5RP2/8","color-picker",58,244451,"block2_target_trial",NA
