iterationName,aID,wordSetID,rt,word,button_pressed,response_r,response_g,response_b,response_munsell,trial_type,trial_index,time_elapsed,condition,sliderResponse
full_sample,39PAAFCODM0MIBRLX0IX50HNG2LTV4,0,1614.8649998940527,,,,,,,html-keyboard-response,0,1633,instructions,
full_sample,39PAAFCODM0MIBRLX0IX50HNG2LTV4,0,2423.0499998666346,,0,,,,,html-button-response,1,4058,,
full_sample,39PAAFCODM0MIBRLX0IX50HNG2LTV4,0,9604.834999889135,,,,,,,html-keyboard-response,2,13664,instructions,
full_sample,39PAAFCODM0MIBRLX0IX50HNG2LTV4,0,2751.454999903217,,,,,,,image-keyboard-response,3,16417,colorblindness_trial,
full_sample,39PAAFCODM0MIBRLX0IX50HNG2LTV4,0,923.9700001198798,,,,,,,image-keyboard-response,4,17342,colorblindness_trial,
full_sample,39PAAFCODM0MIBRLX0IX50HNG2LTV4,0,701.0399999562651,,,,,,,image-keyboard-response,5,18044,colorblindness_trial,
full_sample,3CTOC39K37QQTIUK381DXGEBWINJ7X,0,3901.639999996405,,,,,,,html-keyboard-response,0,3904,instructions,
full_sample,3CTOC39K37QQTIUK381DXGEBWINJ7X,0,4676.899999962188,,0,,,,,html-button-response,1,8585,,
full_sample,39PAAFCODM0MIBRLX0IX50HNG2LTV4,0,5957.1749998722225,,,,,,,html-keyboard-response,6,24002,instructions,
full_sample,39PAAFCODM0MIBRLX0IX50HNG2LTV4,0,1540.040000109002,,,,,,,html-keyboard-response,7,25543,instructions,
full_sample,39PAAFCODM0MIBRLX0IX50HNG2LTV4,0,2778.374999994412,red,44,216,65,0,10R5/16,color-picker,8,28324,catch_trial_color_trials,
full_sample,39PAAFCODM0MIBRLX0IX50HNG2LTV4,0,1846.8599999323487,green,14,184,216,68,5GY8/10,color-picker,9,30674,color_trial,
full_sample,39PAAFCODM0MIBRLX0IX50HNG2LTV4,0,1091.179999988526,yellow,2,238,234,140,10Y9/6,color-picker,10,32269,color_trial,
full_sample,36DSNE9QZ5YXEOMJKUIF8206M7XOJS,0,8278.365000034682,,,,,,,html-keyboard-response,0,8302,instructions,
full_sample,39PAAFCODM0MIBRLX0IX50HNG2LTV4,0,2037.6249998807907,blue,72,0,79,142,10B3/10,color-picker,11,34810,catch_trial_color_trials,
full_sample,39PAAFCODM0MIBRLX0IX50HNG2LTV4,0,1936.6649999283254,pink,31,238,151,162,10RP7/8,color-picker,12,37250,color_trial,
full_sample,39PAAFCODM0MIBRLX0IX50HNG2LTV4,0,1617.1399999875575,orange,34,231,111,0,5YR6/14,color-picker,13,39369,color_trial,
full_sample,36DSNE9QZ5YXEOMJKUIF8206M7XOJS,0,9225.350000022445,,0,,,,,html-button-response,1,17533,,
full_sample,39PAAFCODM0MIBRLX0IX50HNG2LTV4,0,2124.294999986887,purple,74,118,39,110,10P3/10,color-picker,14,41996,color_trial,
full_sample,39PAAFCODM0MIBRLX0IX50HNG2LTV4,0,1403.995000058785,,,,,,,html-keyboard-response,15,43903,instructions,
full_sample,36DSNE9QZ5YXEOMJKUIF8206M7XOJS,0,3433.214999968186,,,,,,,html-keyboard-response,2,20970,instructions,
full_sample,39PAAFCODM0MIBRLX0IX50HNG2LTV4,0,4057.7150001190603,sadness,18,173,204,247,5PB8/6,color-picker,16,47962,block1_target_trial,
full_sample,39PAAFCODM0MIBRLX0IX50HNG2LTV4,0,2500.535000115633,pheasant,13,252,190,0,5Y8/14,color-picker,17,50966,block1_target_trial,
full_sample,36DSNE9QZ5YXEOMJKUIF8206M7XOJS,0,6856.444999983069,,,,,,,image-keyboard-response,3,27830,colorblindness_trial,
full_sample,39PAAFCODM0MIBRLX0IX50HNG2LTV4,0,1781.775000039488,barley,26,64,196,164,10G7/8,color-picker,18,53249,block1_target_trial,
full_sample,39PAAFCODM0MIBRLX0IX50HNG2LTV4,0,2177.309999940917,appearance,0,245,225,219,10R9/2,color-picker,19,55932,block1_target_trial,
full_sample,36DSNE9QZ5YXEOMJKUIF8206M7XOJS,0,5175.814999965951,,,,,,,image-keyboard-response,4,33010,colorblindness_trial,
full_sample,39PAAFCODM0MIBRLX0IX50HNG2LTV4,0,1508.21499992162,sun,13,252,190,0,5Y8/14,color-picker,20,57943,block1_target_trial,
full_sample,36DSNE9QZ5YXEOMJKUIF8206M7XOJS,0,1793.660000024829,,,,,,,image-keyboard-response,5,34808,colorblindness_trial,
full_sample,39PAAFCODM0MIBRLX0IX50HNG2LTV4,0,1984.5050000585616,rose,33,239,107,106,5R6/12,color-picker,21,60431,block1_target_trial,
full_sample,36DSNE9QZ5YXEOMJKUIF8206M7XOJS,0,2547.740000009071,,,,,,,html-keyboard-response,6,37358,instructions,
full_sample,39PAAFCODM0MIBRLX0IX50HNG2LTV4,0,1752.7950000949204,bone,0,245,225,219,10R9/2,color-picker,22,62689,block1_target_trial,
full_sample,36DSNE9QZ5YXEOMJKUIF8206M7XOJS,0,2864.6350000053644,,,,,,,html-keyboard-response,7,40226,instructions,
full_sample,39PAAFCODM0MIBRLX0IX50HNG2LTV4,0,1708.4250000771135,fish,28,99,185,228,10B7/8,color-picker,23,64900,block1_target_trial,
full_sample,39PAAFCODM0MIBRLX0IX50HNG2LTV4,0,1497.1900000236928,rock,43,163,162,162,N6,color-picker,24,66900,block1_target_trial,
full_sample,39PAAFCODM0MIBRLX0IX50HNG2LTV4,0,1700.5600000265986,playfulness,42,226,110,159,5RP6/12,color-picker,25,69103,block1_target_trial,
full_sample,3CTOC39K37QQTIUK381DXGEBWINJ7X,0,47460.48000000883,,,,,,,html-keyboard-response,2,56047,instructions,
full_sample,36DSNE9QZ5YXEOMJKUIF8206M7XOJS,0,5951.32500003092,green,47,54,142,15,10GY5/12,color-picker,8,46185,color_trial,
full_sample,39PAAFCODM0MIBRLX0IX50HNG2LTV4,0,1768.709999974817,excitement,23,244,150,0,10YR7/14,color-picker,26,71375,block1_target_trial,
full_sample,3CTOC39K37QQTIUK381DXGEBWINJ7X,0,1613.4450000245124,,,,,,,image-keyboard-response,3,57664,colorblindness_trial,
full_sample,39PAAFCODM0MIBRLX0IX50HNG2LTV4,0,1503.5749999806285,shampoo,50,0,146,196,10B5/12,color-picker,27,73381,block1_target_trial,
full_sample,3CTOC39K37QQTIUK381DXGEBWINJ7X,0,1550.1100000110455,,,,,,,image-keyboard-response,4,59215,colorblindness_trial,
full_sample,36DSNE9QZ5YXEOMJKUIF8206M7XOJS,0,3698.369999998249,orange,23,244,150,0,10YR7/14,color-picker,9,50390,color_trial,
full_sample,39PAAFCODM0MIBRLX0IX50HNG2LTV4,0,1406.6249998286366,chalk,0,245,225,219,10R9/2,color-picker,28,75291,block1_target_trial,
full_sample,3CTOC39K37QQTIUK381DXGEBWINJ7X,0,6238.650000013877,,,,,,,image-keyboard-response,5,65456,colorblindness_trial,
full_sample,39PAAFCODM0MIBRLX0IX50HNG2LTV4,0,4527.694999938831,divinity,63,132,71,157,5P4/12,color-picker,29,80321,block1_target_trial,
full_sample,39PAAFCODM0MIBRLX0IX50HNG2LTV4,0,2400.27999994345,loyal,51,124,112,186,10PB5/10,color-picker,30,83225,block1_target_trial,
full_sample,39PAAFCODM0MIBRLX0IX50HNG2LTV4,0,2255.875000031665,optimism,13,252,190,0,5Y8/14,color-picker,31,85983,block1_target_trial,
full_sample,39PAAFCODM0MIBRLX0IX50HNG2LTV4,0,1632.6500000432134,urge,49,0,147,152,10BG5/10,color-picker,32,88119,block1_target_trial,
full_sample,39PAAFCODM0MIBRLX0IX50HNG2LTV4,0,1462.6249999273568,lemon,2,238,234,140,10Y9/6,color-picker,33,90085,block1_target_trial,
full_sample,39PAAFCODM0MIBRLX0IX50HNG2LTV4,0,2033.2649999763817,robin,44,216,65,0,10R5/16,color-picker,34,92621,block1_target_trial,
full_sample,39PAAFCODM0MIBRLX0IX50HNG2LTV4,0,2501.864999998361,pain,80,46,52,38,5GY2/2,color-picker,35,95626,block1_target_trial,
full_sample,39PAAFCODM0MIBRLX0IX50HNG2LTV4,0,1970.54999996908,ache,66,137,34,17,10R3/10,color-picker,36,98099,block1_target_trial,
full_sample,39PAAFCODM0MIBRLX0IX50HNG2LTV4,0,1399.3249998893589,desire,44,216,65,0,10R5/16,color-picker,37,100001,block1_target_trial,
full_sample,39PAAFCODM0MIBRLX0IX50HNG2LTV4,0,1847.1450000070035,faith,13,252,190,0,5Y8/14,color-picker,38,102351,block1_target_trial,
full_sample,39PAAFCODM0MIBRLX0IX50HNG2LTV4,0,1811.0999998170882,success,63,132,71,157,5P4/12,color-picker,39,104665,block1_target_trial,
full_sample,39PAAFCODM0MIBRLX0IX50HNG2LTV4,0,1208.549999864772,romance,44,216,65,0,10R5/16,color-picker,40,106377,block1_target_trial,
full_sample,36DSNE9QZ5YXEOMJKUIF8206M7XOJS,0,31369.22999995295,purple,0,245,225,219,10R9/2,color-picker,10,82271,color_trial,
full_sample,39PAAFCODM0MIBRLX0IX50HNG2LTV4,0,2614.555000094697,corpse,87,59,58,58,N2,color-picker,41,109494,block1_target_trial,
full_sample,39PAAFCODM0MIBRLX0IX50HNG2LTV4,0,1663.5900000110269,temptation,44,216,65,0,10R5/16,color-picker,42,111661,block1_target_trial,
full_sample,39PAAFCODM0MIBRLX0IX50HNG2LTV4,0,1519.510000012815,staple,48,0,149,112,10G5/10,color-picker,43,113684,block1_target_trial,
full_sample,36DSNE9QZ5YXEOMJKUIF8206M7XOJS,0,7434.505000011995,red,44,216,65,0,10R5/16,color-picker,11,90211,catch_trial_color_trials,
full_sample,39PAAFCODM0MIBRLX0IX50HNG2LTV4,0,1284.5299998298287,energy,24,203,172,0,10Y7/12,color-picker,44,115471,block1_target_trial,
full_sample,39PAAFCODM0MIBRLX0IX50HNG2LTV4,0,1776.5049999579787,relief,23,244,150,0,10YR7/14,color-picker,45,117750,block1_target_trial,
full_sample,39PAAFCODM0MIBRLX0IX50HNG2LTV4,0,1575.0599999446422,fork,87,59,58,58,N2,color-picker,46,119829,block1_target_trial,
full_sample,36DSNE9QZ5YXEOMJKUIF8206M7XOJS,0,5150.335000013001,blue,72,0,79,142,10B3/10,color-picker,12,95870,catch_trial_color_trials,
full_sample,39PAAFCODM0MIBRLX0IX50HNG2LTV4,0,2058.930000057444,heroism,63,132,71,157,5P4/12,color-picker,47,122390,block1_target_trial,
full_sample,39PAAFCODM0MIBRLX0IX50HNG2LTV4,0,1439.8300000466406,gloom,18,173,204,247,5PB8/6,color-picker,48,124333,block1_target_trial,
full_sample,36DSNE9QZ5YXEOMJKUIF8206M7XOJS,0,4942.500000004657,yellow,13,252,190,0,5Y8/14,color-picker,13,101319,color_trial,
full_sample,39PAAFCODM0MIBRLX0IX50HNG2LTV4,0,2032.6249999925494,boat,50,0,146,196,10B5/12,color-picker,49,126869,block1_target_trial,
full_sample,36DSNE9QZ5YXEOMJKUIF8206M7XOJS,0,3104.21999997925,pink,55,190,26,52,5R4/14,color-picker,14,104929,color_trial,
full_sample,39PAAFCODM0MIBRLX0IX50HNG2LTV4,0,3590.0250000413507,mansion,57,116,95,21,5Y4/6,color-picker,50,130962,block1_target_trial,
full_sample,36DSNE9QZ5YXEOMJKUIF8206M7XOJS,0,2601.470000052359,,,,,,,html-keyboard-response,15,108034,instructions,
full_sample,39PAAFCODM0MIBRLX0IX50HNG2LTV4,0,2078.734999988228,toe,11,254,185,179,5R8/6,color-picker,51,133544,block1_target_trial,
full_sample,39PAAFCODM0MIBRLX0IX50HNG2LTV4,0,1758.5549999494106,computer,76,82,82,81,N3,color-picker,52,135806,block1_target_trial,
full_sample,39PAAFCODM0MIBRLX0IX50HNG2LTV4,0,1251.46000017412,blue,62,0,113,178,5PB4/12,color-picker,53,137561,block1_catch_trial,
full_sample,39PAAFCODM0MIBRLX0IX50HNG2LTV4,0,1522.5299999583513,heaven,50,0,146,196,10B5/12,color-picker,54,139587,block1_target_trial,
full_sample,3JAOYWH7VI402R6DLQBARRI9VXG9L1,0,2467.1849999576807,,,,,,,html-keyboard-response,0,2490,instructions,
full_sample,39PAAFCODM0MIBRLX0IX50HNG2LTV4,0,1499.0049998741597,tarantula,87,59,58,58,N2,color-picker,55,141589,block1_target_trial,
full_sample,3MMN5BL1WZ4YT7ZI4TBF0RUCVAWM3Z,0,150988.29000000842,,,,,,,html-keyboard-response,0,151043,instructions,
full_sample,39PAAFCODM0MIBRLX0IX50HNG2LTV4,0,2273.5199998132885,belt,83,0,63,80,5B2/6,color-picker,56,144365,block1_target_trial,
full_sample,3JAOYWH7VI402R6DLQBARRI9VXG9L1,0,3685.2300001773983,,0,,,,,html-button-response,1,6181,,
full_sample,3MMN5BL1WZ4YT7ZI4TBF0RUCVAWM3Z,0,4003.9550000219606,,0,,,,,html-button-response,1,155056,,
full_sample,39PAAFCODM0MIBRLX0IX50HNG2LTV4,0,4966.999999945983,,,,,,,html-keyboard-response,57,149833,instructions,
full_sample,36DSNE9QZ5YXEOMJKUIF8206M7XOJS,0,21589.12000001874,faith,47,54,142,15,10GY5/12,color-picker,16,129632,block1_target_trial,
full_sample,3JAOYWH7VI402R6DLQBARRI9VXG9L1,0,9600.654999958351,,,,,,,html-keyboard-response,2,15785,instructions,
full_sample,3KIBXJ1WD5USP8S12FIR9H0J1WXOKR,0,161900.48499999102,,,,,,,html-keyboard-response,0,161934,instructions,
full_sample,39PAAFCODM0MIBRLX0IX50HNG2LTV4,0,5412.385000148788,temptation,44,216,65,0,10R5/16,color-picker,58,155247,block2_target_trial,
full_sample,3CTOC39K37QQTIUK381DXGEBWINJ7X,0,77677.62500001118,,,,,,,html-keyboard-response,6,143134,instructions,
full_sample,36DSNE9QZ5YXEOMJKUIF8206M7XOJS,0,3044.454999966547,success,47,54,142,15,10GY5/12,color-picker,17,133182,block1_target_trial,
full_sample,3KIBXJ1WD5USP8S12FIR9H0J1WXOKR,0,4548.744999992778,,0,,,,,html-button-response,1,166489,,
full_sample,3CTOC39K37QQTIUK381DXGEBWINJ7X,0,1806.7150000133552,,,,,,,html-keyboard-response,7,144942,instructions,
full_sample,39PAAFCODM0MIBRLX0IX50HNG2LTV4,0,4020.374999847263,temptation,,,,,,html-slider-response,59,159770,block2_expectation_trial,41
full_sample,39PAAFCODM0MIBRLX0IX50HNG2LTV4,0,1132.1750001516193,romance,44,216,65,0,10R5/16,color-picker,60,160904,block2_target_trial,
full_sample,3JAOYWH7VI402R6DLQBARRI9VXG9L1,0,7905.904999934137,,,,,,,image-keyboard-response,3,23694,colorblindness_trial,
full_sample,3MMN5BL1WZ4YT7ZI4TBF0RUCVAWM3Z,0,15911.985000013374,,,,,,,html-keyboard-response,2,170970,instructions,
full_sample,39PAAFCODM0MIBRLX0IX50HNG2LTV4,0,2436.7150000762194,romance,,,,,,html-slider-response,61,163842,block2_expectation_trial,100
full_sample,3CTOC39K37QQTIUK381DXGEBWINJ7X,0,4756.995000003371,green,25,103,196,96,10GY7/10,color-picker,8,149704,color_trial,
full_sample,3JAOYWH7VI402R6DLQBARRI9VXG9L1,0,2183.4400000516325,,,,,,,image-keyboard-response,4,25883,colorblindness_trial,
full_sample,36DSNE9QZ5YXEOMJKUIF8206M7XOJS,0,6640.285000030417,sadness,80,46,52,38,5GY2/2,color-picker,18,140329,block1_target_trial,
full_sample,39PAAFCODM0MIBRLX0IX50HNG2LTV4,0,1243.1199999991804,red,44,216,65,0,10R5/16,color-picker,62,165087,block2_catch_trial,
full_sample,3JAOYWH7VI402R6DLQBARRI9VXG9L1,0,1775.8400000166148,,,,,,,image-keyboard-response,5,27663,colorblindness_trial,
full_sample,3CTOC39K37QQTIUK381DXGEBWINJ7X,0,1779.1849999921396,orange,13,252,190,0,5Y8/14,color-picker,9,152015,color_trial,
full_sample,39PAAFCODM0MIBRLX0IX50HNG2LTV4,0,2276.0449999477714,robin,44,216,65,0,10R5/16,color-picker,63,167866,block2_target_trial,
full_sample,3MMN5BL1WZ4YT7ZI4TBF0RUCVAWM3Z,0,5257.924999983516,,,,,,,image-keyboard-response,3,176233,colorblindness_trial,
full_sample,3CTOC39K37QQTIUK381DXGEBWINJ7X,0,1876.5099999727681,blue,72,0,79,142,10B3/10,color-picker,10,154398,catch_trial_color_trials,
full_sample,36DSNE9QZ5YXEOMJKUIF8206M7XOJS,0,4246.539999963716,toe,3,200,241,191,10GY9/4,color-picker,19,145082,block1_target_trial,
full_sample,39PAAFCODM0MIBRLX0IX50HNG2LTV4,0,1197.1749998629093,robin,,,,,,html-slider-response,64,169564,block2_expectation_trial,77
full_sample,3MMN5BL1WZ4YT7ZI4TBF0RUCVAWM3Z,0,2036.1699999775738,,,,,,,image-keyboard-response,4,178276,colorblindness_trial,
full_sample,3CTOC39K37QQTIUK381DXGEBWINJ7X,0,1708.295000018552,purple,63,132,71,157,5P4/12,color-picker,11,156615,color_trial,
full_sample,39PAAFCODM0MIBRLX0IX50HNG2LTV4,0,1432.859999826178,corpse,87,59,58,58,N2,color-picker,65,170999,block2_target_trial,
full_sample,3MMN5BL1WZ4YT7ZI4TBF0RUCVAWM3Z,0,1250.049999973271,,,,,,,image-keyboard-response,5,179530,colorblindness_trial,
full_sample,3JAOYWH7VI402R6DLQBARRI9VXG9L1,0,5208.499999949709,,,,,,,html-keyboard-response,6,32874,instructions,
full_sample,39PAAFCODM0MIBRLX0IX50HNG2LTV4,0,1172.3550001624972,corpse,,,,,,html-slider-response,66,172673,block2_expectation_trial,17
full_sample,3CTOC39K37QQTIUK381DXGEBWINJ7X,0,1897.4249999737367,red,55,190,26,52,5R4/14,color-picker,12,159031,catch_trial_color_trials,
full_sample,3JAOYWH7VI402R6DLQBARRI9VXG9L1,0,2297.224999871105,,,,,,,html-keyboard-response,7,35173,instructions,
full_sample,3MMN5BL1WZ4YT7ZI4TBF0RUCVAWM3Z,0,3549.735000007786,,,,,,,html-keyboard-response,6,183082,instructions,
full_sample,39PAAFCODM0MIBRLX0IX50HNG2LTV4,0,3105.784999905154,sadness,6,216,232,240,10B9/2,color-picker,67,175780,block2_target_trial,
full_sample,36DSNE9QZ5YXEOMJKUIF8206M7XOJS,0,6713.464999978896,corpse,25,103,196,96,10GY7/10,color-picker,20,152301,block1_target_trial,
full_sample,3MMN5BL1WZ4YT7ZI4TBF0RUCVAWM3Z,0,2964.655000017956,,,,,,,html-keyboard-response,7,186051,instructions,
full_sample,3CTOC39K37QQTIUK381DXGEBWINJ7X,0,5266.689999960363,yellow,2,238,234,140,10Y9/6,color-picker,13,164814,color_trial,
full_sample,39PAAFCODM0MIBRLX0IX50HNG2LTV4,0,3753.5600000992417,sadness,,,,,,html-slider-response,68,180035,block2_expectation_trial,43
full_sample,3JAOYWH7VI402R6DLQBARRI9VXG9L1,0,6307.220000075176,purple,18,173,204,247,5PB8/6,color-picker,8,41485,color_trial,
full_sample,3CTOC39K37QQTIUK381DXGEBWINJ7X,0,1454.9049999914132,pink,53,218,64,108,10RP5/14,color-picker,14,166774,color_trial,
full_sample,3KIBXJ1WD5USP8S12FIR9H0J1WXOKR,0,22084.249999999884,,,,,,,html-keyboard-response,2,188577,instructions,
full_sample,36DSNE9QZ5YXEOMJKUIF8206M7XOJS,0,4061.4150000037625,sun,34,231,111,0,5YR6/14,color-picker,21,156870,block1_target_trial,
full_sample,39PAAFCODM0MIBRLX0IX50HNG2LTV4,0,1502.9649999924004,playfulness,13,252,190,0,5Y8/14,color-picker,69,181540,block2_target_trial,
full_sample,3KIBXJ1WD5USP8S12FIR9H0J1WXOKR,0,1455.5549999931827,,,,,,,image-keyboard-response,3,190036,colorblindness_trial,
full_sample,3JAOYWH7VI402R6DLQBARRI9VXG9L1,0,2768.9650000538677,blue,50,0,146,196,10B5/12,color-picker,9,44854,catch_trial_color_trials,
full_sample,3KIBXJ1WD5USP8S12FIR9H0J1WXOKR,0,1422.3050000000512,,,,,,,image-keyboard-response,4,191460,colorblindness_trial,
full_sample,39PAAFCODM0MIBRLX0IX50HNG2LTV4,0,2723.6649999395013,playfulness,,,,,,html-slider-response,70,184766,block2_expectation_trial,56
full_sample,3MMN5BL1WZ4YT7ZI4TBF0RUCVAWM3Z,0,6862.505000026431,red,55,190,26,52,5R4/14,color-picker,8,192922,catch_trial_color_trials,
full_sample,3KIBXJ1WD5USP8S12FIR9H0J1WXOKR,0,1253.9749999996275,,,,,,,image-keyboard-response,5,192717,colorblindness_trial,
full_sample,3JAOYWH7VI402R6DLQBARRI9VXG9L1,0,1916.304999962449,orange,23,244,150,0,10YR7/14,color-picker,10,47277,color_trial,
full_sample,36DSNE9QZ5YXEOMJKUIF8206M7XOJS,0,4935.354999965057,pheasant,25,103,196,96,10GY7/10,color-picker,22,162311,block1_target_trial,
full_sample,39PAAFCODM0MIBRLX0IX50HNG2LTV4,0,1889.6600001025945,barley,25,103,196,96,10GY7/10,color-picker,71,186657,block2_target_trial,
full_sample,3MMN5BL1WZ4YT7ZI4TBF0RUCVAWM3Z,0,2014.5499999634922,yellow,2,238,234,140,10Y9/6,color-picker,9,195445,color_trial,
full_sample,3CTOC39K37QQTIUK381DXGEBWINJ7X,0,6018.7900000019,,,,,,,html-keyboard-response,15,173310,instructions,
full_sample,39PAAFCODM0MIBRLX0IX50HNG2LTV4,0,1492.3150001559407,barley,,,,,,html-slider-response,72,188652,block2_expectation_trial,79
full_sample,3MMN5BL1WZ4YT7ZI4TBF0RUCVAWM3Z,0,1374.9299999908544,purple,85,73,31,87,5P2/8,color-picker,10,197327,color_trial,
full_sample,3JAOYWH7VI402R6DLQBARRI9VXG9L1,0,2911.5749998018146,pink,42,226,110,159,5RP6/12,color-picker,11,50693,color_trial,
full_sample,39PAAFCODM0MIBRLX0IX50HNG2LTV4,0,1511.49500021711,shampoo,61,0,121,148,5B4/10,color-picker,73,190165,block2_target_trial,
full_sample,3CTOC39K37QQTIUK381DXGEBWINJ7X,0,3269.185000041034,playfulness,23,244,150,0,10YR7/14,color-picker,16,176582,block1_target_trial,
full_sample,3MMN5BL1WZ4YT7ZI4TBF0RUCVAWM3Z,0,1714.025000052061,orange,34,231,111,0,5YR6/14,color-picker,11,199547,color_trial,
full_sample,39PAAFCODM0MIBRLX0IX50HNG2LTV4,0,1413.3399999700487,shampoo,,,,,,html-slider-response,74,192081,block2_expectation_trial,25
full_sample,36DSNE9QZ5YXEOMJKUIF8206M7XOJS,0,5304.194999975152,rose,33,239,107,106,5R6/12,color-picker,23,168120,block1_target_trial,
full_sample,3CTOC39K37QQTIUK381DXGEBWINJ7X,0,1559.6999999834225,relief,17,158,211,223,5B8/4,color-picker,17,178646,block1_target_trial,
full_sample,3KIBXJ1WD5USP8S12FIR9H0J1WXOKR,0,7756.764999998268,,,,,,,html-keyboard-response,6,200475,instructions,
full_sample,39PAAFCODM0MIBRLX0IX50HNG2LTV4,0,1260.054999962449,appearance,0,245,225,219,10R9/2,color-picker,75,193343,block2_target_trial,
full_sample,3MMN5BL1WZ4YT7ZI4TBF0RUCVAWM3Z,0,1653.9600000251085,green,69,32,83,38,10GY3/6,color-picker,12,201709,color_trial,
full_sample,3JAOYWH7VI402R6DLQBARRI9VXG9L1,0,3946.320000104606,yellow,1,255,225,176,10YR9/4,color-picker,12,55145,color_trial,
full_sample,39PAAFCODM0MIBRLX0IX50HNG2LTV4,0,1200.9099998977035,appearance,,,,,,html-slider-response,76,195045,block2_expectation_trial,12
full_sample,3MMN5BL1WZ4YT7ZI4TBF0RUCVAWM3Z,0,1166.7149999993853,blue,62,0,113,178,5PB4/12,color-picker,13,203383,catch_trial_color_trials,
full_sample,3KIBXJ1WD5USP8S12FIR9H0J1WXOKR,0,2877.2849999950267,,,,,,,html-keyboard-response,7,203355,instructions,
full_sample,3CTOC39K37QQTIUK381DXGEBWINJ7X,0,2911.614999989979,gloom,78,75,41,23,5YR2/4,color-picker,18,182070,block1_target_trial,
full_sample,3JAOYWH7VI402R6DLQBARRI9VXG9L1,0,2241.649999981746,red,55,190,26,52,5R4/14,color-picker,13,57893,catch_trial_color_trials,
full_sample,39PAAFCODM0MIBRLX0IX50HNG2LTV4,0,1643.9100001007318,pain,77,99,14,38,5R2/8,color-picker,77,196691,block2_target_trial,
full_sample,3MMN5BL1WZ4YT7ZI4TBF0RUCVAWM3Z,0,1601.390000025276,pink,42,226,110,159,5RP6/12,color-picker,14,205491,color_trial,
full_sample,39PAAFCODM0MIBRLX0IX50HNG2LTV4,0,1643.3999999426305,pain,,,,,,html-slider-response,78,198836,block2_expectation_trial,30
full_sample,3JAOYWH7VI402R6DLQBARRI9VXG9L1,0,1911.979999858886,green,47,54,142,15,10GY5/12,color-picker,14,60310,color_trial,
full_sample,36DSNE9QZ5YXEOMJKUIF8206M7XOJS,0,6034.594999975525,energy,23,244,150,0,10YR7/14,color-picker,24,174659,block1_target_trial,
full_sample,3MMN5BL1WZ4YT7ZI4TBF0RUCVAWM3Z,0,2335.159999958705,,,,,,,html-keyboard-response,15,208329,instructions,
full_sample,39PAAFCODM0MIBRLX0IX50HNG2LTV4,0,2032.230000011623,lemon,2,238,234,140,10Y9/6,color-picker,79,200870,block2_target_trial,
full_sample,3JAOYWH7VI402R6DLQBARRI9VXG9L1,0,2428.3249999862164,,,,,,,html-keyboard-response,15,63255,instructions,
full_sample,3CTOC39K37QQTIUK381DXGEBWINJ7X,0,5023.189999978058,loyal,55,190,26,52,5R4/14,color-picker,19,187598,block1_target_trial,
full_sample,39PAAFCODM0MIBRLX0IX50HNG2LTV4,0,1489.3600000068545,lemon,,,,,,html-slider-response,80,202862,block2_expectation_trial,91
full_sample,36DSNE9QZ5YXEOMJKUIF8206M7XOJS,0,3749.6549999923445,belt,2,238,234,140,10Y9/6,color-picker,25,178920,block1_target_trial,
full_sample,3KIBXJ1WD5USP8S12FIR9H0J1WXOKR,0,7393.649999998161,red,44,216,65,0,10R5/16,color-picker,8,210755,catch_trial_color_trials,
full_sample,39PAAFCODM0MIBRLX0IX50HNG2LTV4,0,1107.7149999327958,chalk,0,245,225,219,10R9/2,color-picker,81,203971,block2_target_trial,
full_sample,3CTOC39K37QQTIUK381DXGEBWINJ7X,0,1864.0949999680743,blue,50,0,146,196,10B5/12,color-picker,20,189966,block1_catch_trial,
full_sample,3MMN5BL1WZ4YT7ZI4TBF0RUCVAWM3Z,0,4552.589999977499,desire,51,124,112,186,10PB5/10,color-picker,16,212889,block1_target_trial,
full_sample,39PAAFCODM0MIBRLX0IX50HNG2LTV4,0,1169.810000108555,chalk,,,,,,html-slider-response,82,205643,block2_expectation_trial,68
full_sample,3JAOYWH7VI402R6DLQBARRI9VXG9L1,0,3990.229999879375,romance,55,190,26,52,5R4/14,color-picker,16,67249,block1_target_trial,
full_sample,3CTOC39K37QQTIUK381DXGEBWINJ7X,0,2119.0349999815226,computer,21,202,202,202,N8,color-picker,21,192590,block1_target_trial,
full_sample,3MMN5BL1WZ4YT7ZI4TBF0RUCVAWM3Z,0,1663.6500000022352,heroism,45,170,103,0,10YR5/10,color-picker,17,215059,block1_target_trial,
full_sample,3KIBXJ1WD5USP8S12FIR9H0J1WXOKR,0,3363.280000005034,orange,34,231,111,0,5YR6/14,color-picker,9,214625,color_trial,
full_sample,39PAAFCODM0MIBRLX0IX50HNG2LTV4,0,1830.294999992475,optimism,13,252,190,0,5Y8/14,color-picker,83,207475,block2_target_trial,
full_sample,3JAOYWH7VI402R6DLQBARRI9VXG9L1,0,1882.190000033006,divinity,45,170,103,0,10YR5/10,color-picker,17,69693,block1_target_trial,
full_sample,3MMN5BL1WZ4YT7ZI4TBF0RUCVAWM3Z,0,1326.8449999741279,ache,55,190,26,52,5R4/14,color-picker,18,216893,block1_target_trial,
full_sample,3CTOC39K37QQTIUK381DXGEBWINJ7X,0,1718.764999997802,rose,55,190,26,52,5R4/14,color-picker,22,194814,block1_target_trial,
full_sample,39PAAFCODM0MIBRLX0IX50HNG2LTV4,0,1285.2350000757724,optimism,,,,,,html-slider-response,84,209262,block2_expectation_trial,80
full_sample,3KIBXJ1WD5USP8S12FIR9H0J1WXOKR,0,1961.1749999894528,green,47,54,142,15,10GY5/12,color-picker,10,217092,color_trial,
full_sample,36DSNE9QZ5YXEOMJKUIF8206M7XOJS,0,6200.639999995474,romance,72,0,79,142,10B3/10,color-picker,26,185632,block1_target_trial,
full_sample,3MMN5BL1WZ4YT7ZI4TBF0RUCVAWM3Z,0,1816.3100000238046,robin,47,54,142,15,10GY5/12,color-picker,19,219217,block1_target_trial,
full_sample,39PAAFCODM0MIBRLX0IX50HNG2LTV4,0,2377.060000086203,heaven,29,173,169,229,10PB7/8,color-picker,85,211641,block2_target_trial,
full_sample,3CTOC39K37QQTIUK381DXGEBWINJ7X,0,2928.220000001602,mansion,12,255,186,123,5YR8/8,color-picker,23,198246,block1_target_trial,
full_sample,3MMN5BL1WZ4YT7ZI4TBF0RUCVAWM3Z,0,1326.714999973774,pain,55,190,26,52,5R4/14,color-picker,20,221051,block1_target_trial,
full_sample,3KIBXJ1WD5USP8S12FIR9H0J1WXOKR,0,3448.0449999973644,yellow,13,252,190,0,5Y8/14,color-picker,11,221046,color_trial,
full_sample,39PAAFCODM0MIBRLX0IX50HNG2LTV4,0,1749.6450000908226,heaven,,,,,,html-slider-response,86,213893,block2_expectation_trial,36
full_sample,36DSNE9QZ5YXEOMJKUIF8206M7XOJS,0,4484.134999976959,tarantula,24,203,172,0,10Y7/12,color-picker,27,190622,block1_target_trial,
full_sample,3CTOC39K37QQTIUK381DXGEBWINJ7X,0,2064.635000017006,toe,78,75,41,23,5YR2/4,color-picker,24,200815,block1_target_trial,
full_sample,3MMN5BL1WZ4YT7ZI4TBF0RUCVAWM3Z,0,1888.5499999742024,chalk,10,233,232,231,N9,color-picker,21,223447,block1_target_trial,
full_sample,3JAOYWH7VI402R6DLQBARRI9VXG9L1,0,6675.784999970347,excitement,59,0,117,66,5G4/10,color-picker,18,76873,block1_target_trial,
full_sample,39PAAFCODM0MIBRLX0IX50HNG2LTV4,0,1749.3300000205636,ache,45,170,103,0,10YR5/10,color-picker,87,215645,block2_target_trial,
full_sample,3KIBXJ1WD5USP8S12FIR9H0J1WXOKR,0,2712.329999994836,pink,53,218,64,108,10RP5/14,color-picker,12,224264,color_trial,
full_sample,3CTOC39K37QQTIUK381DXGEBWINJ7X,0,1550.0100000062957,chalk,41,170,136,191,5P6/8,color-picker,25,202878,block1_target_trial,
full_sample,3MMN5BL1WZ4YT7ZI4TBF0RUCVAWM3Z,0,1465.4350000200793,playfulness,25,103,196,96,10GY7/10,color-picker,22,225417,block1_target_trial,
full_sample,39PAAFCODM0MIBRLX0IX50HNG2LTV4,0,1881.969999987632,ache,,,,,,html-slider-response,88,218029,block2_expectation_trial,24
full_sample,3JAOYWH7VI402R6DLQBARRI9VXG9L1,0,2544.7849999181926,sun,2,238,234,140,10Y9/6,color-picker,19,79924,block1_target_trial,
full_sample,39PAAFCODM0MIBRLX0IX50HNG2LTV4,0,1672.04499989748,excitement,44,216,65,0,10R5/16,color-picker,89,219703,block2_target_trial,
full_sample,3MMN5BL1WZ4YT7ZI4TBF0RUCVAWM3Z,0,1903.9950000005774,pheasant,46,141,120,0,10Y5/8,color-picker,23,227827,block1_target_trial,
full_sample,3CTOC39K37QQTIUK381DXGEBWINJ7X,0,2095.489999977872,fork,65,107,108,107,N4,color-picker,26,205491,block1_target_trial,
full_sample,3KIBXJ1WD5USP8S12FIR9H0J1WXOKR,0,4735.650000002352,purple,73,79,58,135,10PB3/10,color-picker,13,229504,color_trial,
full_sample,39PAAFCODM0MIBRLX0IX50HNG2LTV4,0,1843.485000077635,excitement,,,,,,html-slider-response,90,222049,block2_expectation_trial,75
full_sample,3CTOC39K37QQTIUK381DXGEBWINJ7X,0,1858.8699999963865,staple,87,59,58,58,N2,color-picker,27,207870,block1_target_trial,
full_sample,3MMN5BL1WZ4YT7ZI4TBF0RUCVAWM3Z,0,2265.6500000157394,bone,10,233,232,231,N9,color-picker,24,230599,block1_target_trial,
full_sample,36DSNE9QZ5YXEOMJKUIF8206M7XOJS,0,7713.499999954365,mansion,13,252,190,0,5Y8/14,color-picker,28,198842,block1_target_trial,
full_sample,3JAOYWH7VI402R6DLQBARRI9VXG9L1,0,4153.829999966547,playfulness,14,184,216,68,5GY8/10,color-picker,20,84583,block1_target_trial,
full_sample,39PAAFCODM0MIBRLX0IX50HNG2LTV4,0,1337.6599999610335,fork,87,59,58,58,N2,color-picker,91,223388,block2_target_trial,
full_sample,3KIBXJ1WD5USP8S12FIR9H0J1WXOKR,0,2147.2050000011222,blue,72,0,79,142,10B3/10,color-picker,14,232156,catch_trial_color_trials,
full_sample,3MMN5BL1WZ4YT7ZI4TBF0RUCVAWM3Z,0,1959.8450000048615,faith,50,0,146,196,10B5/12,color-picker,25,233067,block1_target_trial,
full_sample,3CTOC39K37QQTIUK381DXGEBWINJ7X,0,2631.9800000055693,desire,40,96,151,219,5PB6/10,color-picker,28,211006,block1_target_trial,
full_sample,3JAOYWH7VI402R6DLQBARRI9VXG9L1,0,1759.5500000752509,ache,27,29,194,202,10BG7/8,color-picker,21,86847,block1_target_trial,
full_sample,39PAAFCODM0MIBRLX0IX50HNG2LTV4,0,1594.6899999398738,fork,,,,,,html-slider-response,92,225485,block2_expectation_trial,69
full_sample,3MMN5BL1WZ4YT7ZI4TBF0RUCVAWM3Z,0,1207.0400000084192,rose,33,239,107,106,5R6/12,color-picker,26,234781,block1_target_trial,
full_sample,39PAAFCODM0MIBRLX0IX50HNG2LTV4,0,1288.9149999246001,mansion,57,116,95,21,5Y4/6,color-picker,93,226775,block2_target_trial,
full_sample,3KIBXJ1WD5USP8S12FIR9H0J1WXOKR,0,1667.7899999922374,,,,,,,html-keyboard-response,15,234327,instructions,
full_sample,3JAOYWH7VI402R6DLQBARRI9VXG9L1,0,2260.969999944791,sadness,21,202,202,202,N8,color-picker,22,89612,block1_target_trial,
full_sample,3MMN5BL1WZ4YT7ZI4TBF0RUCVAWM3Z,0,1247.2500000149012,lemon,2,238,234,140,10Y9/6,color-picker,27,236535,block1_target_trial,
full_sample,3CTOC39K37QQTIUK381DXGEBWINJ7X,0,3063.9099999680184,pheasant,72,0,79,142,10B3/10,color-picker,29,214574,block1_target_trial,
full_sample,39PAAFCODM0MIBRLX0IX50HNG2LTV4,0,1806.7950000986457,mansion,,,,,,html-slider-response,94,229083,block2_expectation_trial,49
full_sample,36DSNE9QZ5YXEOMJKUIF8206M7XOJS,0,6218.695000046864,lemon,13,252,190,0,5Y8/14,color-picker,29,205566,block1_target_trial,
full_sample,3JAOYWH7VI402R6DLQBARRI9VXG9L1,0,3197.7599998936057,shampoo,17,158,211,223,5B8/4,color-picker,23,93314,block1_target_trial,
full_sample,3CTOC39K37QQTIUK381DXGEBWINJ7X,0,2614.9100000038743,temptation,77,99,14,38,5R2/8,color-picker,30,217702,block1_target_trial,
full_sample,36DSNE9QZ5YXEOMJKUIF8206M7XOJS,0,2848.0499999714084,divinity,15,135,220,178,5G8/6,color-picker,30,208920,block1_target_trial,
full_sample,3KIBXJ1WD5USP8S12FIR9H0J1WXOKR,0,6818.029999994906,relief,13,252,190,0,5Y8/14,color-picker,16,241149,block1_target_trial,
full_sample,3JAOYWH7VI402R6DLQBARRI9VXG9L1,0,1917.5349997822195,appearance,41,170,136,191,5P6/8,color-picker,24,95736,block1_target_trial,
full_sample,3MMN5BL1WZ4YT7ZI4TBF0RUCVAWM3Z,0,6630.525000044145,sadness,72,0,79,142,10B3/10,color-picker,28,243673,block1_target_trial,
full_sample,3KIBXJ1WD5USP8S12FIR9H0J1WXOKR,0,2011.5899999946123,barley,47,54,142,15,10GY5/12,color-picker,17,243669,block1_target_trial,
full_sample,3CTOC39K37QQTIUK381DXGEBWINJ7X,0,3663.319999992382,heroism,27,29,194,202,10BG7/8,color-picker,31,221870,block1_target_trial,
full_sample,3JAOYWH7VI402R6DLQBARRI9VXG9L1,0,1593.8449997920543,toe,64,169,50,112,5RP4/12,color-picker,25,97924,block1_target_trial,
full_sample,3MMN5BL1WZ4YT7ZI4TBF0RUCVAWM3Z,0,1481.8649999797344,computer,37,29,171,113,5G6/10,color-picker,29,245661,block1_target_trial,
full_sample,3JAOYWH7VI402R6DLQBARRI9VXG9L1,0,1436.5099999122322,faith,73,79,58,135,10PB3/10,color-picker,26,99865,block1_target_trial,
full_sample,3CTOC39K37QQTIUK381DXGEBWINJ7X,0,2237.585000053514,robin,22,254,147,109,10R7/10,color-picker,32,224622,block1_target_trial,
full_sample,3KIBXJ1WD5USP8S12FIR9H0J1WXOKR,0,2564.220000000205,divinity,63,132,71,157,5P4/12,color-picker,18,246737,block1_target_trial,
full_sample,3MMN5BL1WZ4YT7ZI4TBF0RUCVAWM3Z,0,1501.1299999896437,heaven,2,238,234,140,10Y9/6,color-picker,30,247671,block1_target_trial,
full_sample,36DSNE9QZ5YXEOMJKUIF8206M7XOJS,0,6633.585000003222,heaven,5,205,236,235,10BG9/2,color-picker,31,216060,block1_target_trial,
full_sample,3JAOYWH7VI402R6DLQBARRI9VXG9L1,0,1383.119999896735,barley,70,0,88,63,10G3/8,color-picker,27,101753,block1_target_trial,
full_sample,3CTOC39K37QQTIUK381DXGEBWINJ7X,0,1704.280000005383,divinity,42,226,110,159,5RP6/12,color-picker,33,226830,block1_target_trial,
full_sample,3MMN5BL1WZ4YT7ZI4TBF0RUCVAWM3Z,0,1379.3900000164285,success,2,238,234,140,10Y9/6,color-picker,31,249553,block1_target_trial,
full_sample,3JAOYWH7VI402R6DLQBARRI9VXG9L1,0,1327.4299998302013,mansion,33,239,107,106,5R6/12,color-picker,28,103619,block1_target_trial,
full_sample,39PAAFCODM0MIBRLX0IX50HNG2LTV4,0,13135.550000006333,computer,87,59,58,58,N2,color-picker,95,242220,block2_target_trial,
full_sample,3KIBXJ1WD5USP8S12FIR9H0J1WXOKR,0,3278.2399999996414,fish,21,202,202,202,N8,color-picker,19,250521,block1_target_trial,
full_sample,3MMN5BL1WZ4YT7ZI4TBF0RUCVAWM3Z,0,1497.8550000232644,staple,10,233,232,231,N9,color-picker,32,251557,block1_target_trial,
full_sample,36DSNE9QZ5YXEOMJKUIF8206M7XOJS,0,2734.5949999871664,chalk,1,255,225,176,10YR9/4,color-picker,32,219300,block1_target_trial,
full_sample,3CTOC39K37QQTIUK381DXGEBWINJ7X,0,2268.4400000143796,romance,55,190,26,52,5R4/14,color-picker,34,229606,block1_target_trial,
full_sample,39PAAFCODM0MIBRLX0IX50HNG2LTV4,0,1527.3599999491125,computer,,,,,,html-slider-response,96,244250,block2_expectation_trial,45
full_sample,3JAOYWH7VI402R6DLQBARRI9VXG9L1,0,2558.0500001087785,rose,11,254,185,179,5R8/6,color-picker,29,106684,block1_target_trial,
full_sample,3MMN5BL1WZ4YT7ZI4TBF0RUCVAWM3Z,0,2334.470000001602,belt,87,59,58,58,N2,color-picker,33,254399,block1_target_trial,
full_sample,3KIBXJ1WD5USP8S12FIR9H0J1WXOKR,0,3017.760000002454,rock,43,163,162,162,N6,color-picker,20,254043,block1_target_trial,
full_sample,3CTOC39K37QQTIUK381DXGEBWINJ7X,0,2144.2950000055134,boat,18,173,204,247,5PB8/6,color-picker,35,232254,block1_target_trial,
full_sample,39PAAFCODM0MIBRLX0IX50HNG2LTV4,0,2890.849999850616,urge,49,0,147,152,10BG5/10,color-picker,97,247142,block2_target_trial,
full_sample,36DSNE9QZ5YXEOMJKUIF8206M7XOJS,0,3305.4550000233576,rock,47,54,142,15,10GY5/12,color-picker,33,223110,block1_target_trial,
full_sample,3JAOYWH7VI402R6DLQBARRI9VXG9L1,0,1792.0250000897795,success,15,135,220,178,5G8/6,color-picker,30,108984,block1_target_trial,
full_sample,3MMN5BL1WZ4YT7ZI4TBF0RUCVAWM3Z,0,2514.394999947399,mansion,64,169,50,112,5RP4/12,color-picker,34,257419,block1_target_trial,
full_sample,39PAAFCODM0MIBRLX0IX50HNG2LTV4,0,1825.5799999460578,urge,,,,,,html-slider-response,98,249470,block2_expectation_trial,28
full_sample,3CTOC39K37QQTIUK381DXGEBWINJ7X,0,2503.224999993108,optimism,47,54,142,15,10GY5/12,color-picker,36,235262,block1_target_trial,
full_sample,3JAOYWH7VI402R6DLQBARRI9VXG9L1,0,1784.2549998313189,optimism,2,238,234,140,10Y9/6,color-picker,31,111273,block1_target_trial,
full_sample,39PAAFCODM0MIBRLX0IX50HNG2LTV4,0,1461.0699999611825,desire,44,216,65,0,10R5/16,color-picker,99,250933,block2_target_trial,
full_sample,3MMN5BL1WZ4YT7ZI4TBF0RUCVAWM3Z,0,1550.4450000007637,fork,54,136,137,135,N5,color-picker,35,259479,block1_target_trial,
full_sample,3JAOYWH7VI402R6DLQBARRI9VXG9L1,0,1394.0049998927861,pain,5,205,236,235,10BG9/2,color-picker,32,113173,block1_target_trial,
full_sample,36DSNE9QZ5YXEOMJKUIF8206M7XOJS,0,4274.064999946859,playfulness,47,54,142,15,10GY5/12,color-picker,34,227889,block1_target_trial,
full_sample,3KIBXJ1WD5USP8S12FIR9H0J1WXOKR,0,5312.799999999697,mansion,74,118,39,110,10P3/10,color-picker,21,259863,block1_target_trial,
full_sample,39PAAFCODM0MIBRLX0IX50HNG2LTV4,0,1384.0199999976903,desire,,,,,,html-slider-response,100,252819,block2_expectation_trial,75
full_sample,3JAOYWH7VI402R6DLQBARRI9VXG9L1,0,1667.6949998363853,pheasant,58,93,100,0,5GY4/8,color-picker,33,115345,block1_target_trial,
full_sample,3MMN5BL1WZ4YT7ZI4TBF0RUCVAWM3Z,0,2088.4899999946356,urge,33,239,107,106,5R6/12,color-picker,36,262075,block1_target_trial,
full_sample,36DSNE9QZ5YXEOMJKUIF8206M7XOJS,0,2343.6900000087917,bone,13,252,190,0,5Y8/14,color-picker,35,230739,block1_target_trial,
full_sample,3CTOC39K37QQTIUK381DXGEBWINJ7X,0,5656.005000055302,tarantula,58,93,100,0,5GY4/8,color-picker,37,241426,block1_target_trial,
full_sample,3JAOYWH7VI402R6DLQBARRI9VXG9L1,0,1406.4849999267608,heroism,57,116,95,21,5Y4/6,color-picker,34,117267,block1_target_trial,
full_sample,3MMN5BL1WZ4YT7ZI4TBF0RUCVAWM3Z,0,1406.1400000355206,divinity,63,132,71,157,5P4/12,color-picker,37,263989,block1_target_trial,
full_sample,3KIBXJ1WD5USP8S12FIR9H0J1WXOKR,0,4178.335000004154,computer,87,59,58,58,N2,color-picker,22,264547,block1_target_trial,
full_sample,39PAAFCODM0MIBRLX0IX50HNG2LTV4,0,4324.389999965206,gloom,28,99,185,228,10B7/8,color-picker,101,257145,block2_target_trial,
full_sample,36DSNE9QZ5YXEOMJKUIF8206M7XOJS,0,1713.9200000092387,robin,14,184,216,68,5GY8/10,color-picker,36,232959,block1_target_trial,
full_sample,3MMN5BL1WZ4YT7ZI4TBF0RUCVAWM3Z,0,1440.2549999649636,optimism,2,238,234,140,10Y9/6,color-picker,38,265935,block1_target_trial,
full_sample,3CTOC39K37QQTIUK381DXGEBWINJ7X,0,1747.365000017453,sun,2,238,234,140,10Y9/6,color-picker,38,243678,block1_target_trial,
full_sample,3JAOYWH7VI402R6DLQBARRI9VXG9L1,0,1732.249999884516,staple,67,100,65,8,10YR3/6,color-picker,35,119505,block1_target_trial,
full_sample,39PAAFCODM0MIBRLX0IX50HNG2LTV4,0,1543.6399998143315,gloom,,,,,,html-slider-response,102,259190,block2_expectation_trial,74
full_sample,3JAOYWH7VI402R6DLQBARRI9VXG9L1,0,1538.145000115037,robin,44,216,65,0,10R5/16,color-picker,36,121554,block1_target_trial,
full_sample,36DSNE9QZ5YXEOMJKUIF8206M7XOJS,0,2523.67000002414,staple,2,238,234,140,10Y9/6,color-picker,37,235990,block1_target_trial,
full_sample,3MMN5BL1WZ4YT7ZI4TBF0RUCVAWM3Z,0,1927.6249999529682,fish,49,0,147,152,10BG5/10,color-picker,39,268371,block1_target_trial,
full_sample,39PAAFCODM0MIBRLX0IX50HNG2LTV4,0,1112.7200000919402,toe,0,245,225,219,10R9/2,color-picker,103,260306,block2_target_trial,
full_sample,3KIBXJ1WD5USP8S12FIR9H0J1WXOKR,0,3366.2100000074133,heaven,28,99,185,228,10B7/8,color-picker,23,268418,block1_target_trial,
full_sample,3CTOC39K37QQTIUK381DXGEBWINJ7X,0,2680.999999982305,faith,85,73,31,87,5P2/8,color-picker,39,246861,block1_target_trial,
full_sample,39PAAFCODM0MIBRLX0IX50HNG2LTV4,0,1473.0849999468774,toe,,,,,,html-slider-response,104,262281,block2_expectation_trial,70
full_sample,3MMN5BL1WZ4YT7ZI4TBF0RUCVAWM3Z,0,1598.7849999801256,boat,79,56,49,32,5Y2/2,color-picker,40,270477,block1_target_trial,
full_sample,36DSNE9QZ5YXEOMJKUIF8206M7XOJS,0,1903.5000000149012,temptation,26,64,196,164,10G7/8,color-picker,38,238398,block1_target_trial,
full_sample,3JAOYWH7VI402R6DLQBARRI9VXG9L1,0,2233.674999792129,loyal,28,99,185,228,10B7/8,color-picker,37,124293,block1_target_trial,
full_sample,39PAAFCODM0MIBRLX0IX50HNG2LTV4,0,1388.9850000850856,tarantula,87,59,58,58,N2,color-picker,105,263671,block2_target_trial,
full_sample,3CTOC39K37QQTIUK381DXGEBWINJ7X,0,2208.8949999888428,urge,75,139,23,66,10RP3/10,color-picker,40,249573,block1_target_trial,
full_sample,3KIBXJ1WD5USP8S12FIR9H0J1WXOKR,0,2869.6299999865005,sun,13,252,190,0,5Y8/14,color-picker,24,271792,block1_target_trial,
full_sample,3MMN5BL1WZ4YT7ZI4TBF0RUCVAWM3Z,0,1413.559999957215,excitement,24,203,172,0,10Y7/12,color-picker,41,272399,block1_target_trial,
full_sample,3JAOYWH7VI402R6DLQBARRI9VXG9L1,0,1519.9049999937415,tarantula,8,237,227,233,10P9/2,color-picker,38,126317,block1_target_trial,
full_sample,39PAAFCODM0MIBRLX0IX50HNG2LTV4,0,1403.029999928549,tarantula,,,,,,html-slider-response,106,265577,block2_expectation_trial,73
full_sample,36DSNE9QZ5YXEOMJKUIF8206M7XOJS,0,2515.170000027865,shampoo,26,64,196,164,10G7/8,color-picker,39,241418,block1_target_trial,
full_sample,3MMN5BL1WZ4YT7ZI4TBF0RUCVAWM3Z,0,1921.4849999989383,toe,64,169,50,112,5RP4/12,color-picker,42,274827,block1_target_trial,
full_sample,39PAAFCODM0MIBRLX0IX50HNG2LTV4,0,1405.585000058636,rock,54,136,137,135,N5,color-picker,107,266984,block2_target_trial,
full_sample,3KIBXJ1WD5USP8S12FIR9H0J1WXOKR,0,2716.9100000028266,robin,44,216,65,0,10R5/16,color-picker,25,275015,block1_target_trial,
full_sample,3JAOYWH7VI402R6DLQBARRI9VXG9L1,0,2181.4300001133233,relief,9,242,226,227,10RP9/2,color-picker,39,129029,block1_target_trial,
full_sample,3CTOC39K37QQTIUK381DXGEBWINJ7X,0,3424.005000037141,ache,80,46,52,38,5GY2/2,color-picker,41,253501,block1_target_trial,
full_sample,36DSNE9QZ5YXEOMJKUIF8206M7XOJS,0,1645.699999993667,gloom,15,135,220,178,5G8/6,color-picker,40,243568,block1_target_trial,
full_sample,39PAAFCODM0MIBRLX0IX50HNG2LTV4,0,1188.9400000218302,rock,,,,,,html-slider-response,108,268675,block2_expectation_trial,75
full_sample,3MMN5BL1WZ4YT7ZI4TBF0RUCVAWM3Z,0,1736.3350000232458,corpse,44,216,65,0,10R5/16,color-picker,43,277071,block1_target_trial,
full_sample,3JAOYWH7VI402R6DLQBARRI9VXG9L1,0,1358.1399999093264,blue,40,96,151,219,5PB6/10,color-picker,40,130893,block1_catch_trial,
full_sample,39PAAFCODM0MIBRLX0IX50HNG2LTV4,0,1357.2549999225885,pheasant,13,252,190,0,5Y8/14,color-picker,109,270034,block2_target_trial,
full_sample,36DSNE9QZ5YXEOMJKUIF8206M7XOJS,0,2234.244999999646,boat,16,151,214,204,5BG8/4,color-picker,41,246312,block1_target_trial,
full_sample,3CTOC39K37QQTIUK381DXGEBWINJ7X,0,2411.229999968782,belt,83,0,63,80,5B2/6,color-picker,42,256417,block1_target_trial,
full_sample,3KIBXJ1WD5USP8S12FIR9H0J1WXOKR,0,4156.085000009625,corpse,44,216,65,0,10R5/16,color-picker,26,279677,block1_target_trial,
full_sample,3MMN5BL1WZ4YT7ZI4TBF0RUCVAWM3Z,0,2809.4549999805167,appearance,32,181,182,181,N7,color-picker,44,280387,block1_target_trial,
full_sample,3JAOYWH7VI402R6DLQBARRI9VXG9L1,0,2404.660000000149,boat,69,32,83,38,10GY3/6,color-picker,41,133803,block1_target_trial,
full_sample,36DSNE9QZ5YXEOMJKUIF8206M7XOJS,0,1723.7849999801256,relief,4,203,237,224,10G9/2,color-picker,42,248542,block1_target_trial,
full_sample,39PAAFCODM0MIBRLX0IX50HNG2LTV4,0,2355.2249998319894,pheasant,,,,,,html-slider-response,110,272891,block2_expectation_trial,86
full_sample,3CTOC39K37QQTIUK381DXGEBWINJ7X,0,1831.3750000088476,fish,14,184,216,68,5GY8/10,color-picker,43,258765,block1_target_trial,
full_sample,3JAOYWH7VI402R6DLQBARRI9VXG9L1,0,1493.7050000298768,desire,38,0,173,154,5BG6/10,color-picker,42,135803,block1_target_trial,
full_sample,3MMN5BL1WZ4YT7ZI4TBF0RUCVAWM3Z,0,1759.2050000093877,relief,60,0,118,107,5BG4/8,color-picker,45,282653,block1_target_trial,
full_sample,39PAAFCODM0MIBRLX0IX50HNG2LTV4,0,2543.210000032559,faith,45,170,103,0,10YR5/10,color-picker,111,275436,block2_target_trial,
full_sample,3KIBXJ1WD5USP8S12FIR9H0J1WXOKR,0,3172.8149999980815,bone,10,233,232,231,N9,color-picker,27,283356,block1_target_trial,
full_sample,3CTOC39K37QQTIUK381DXGEBWINJ7X,0,2616.8849999667145,lemon,13,252,190,0,5Y8/14,color-picker,44,261885,block1_target_trial,
full_sample,3MMN5BL1WZ4YT7ZI4TBF0RUCVAWM3Z,0,2103.2649999833666,romance,75,139,23,66,10RP3/10,color-picker,46,285265,block1_target_trial,
full_sample,3JAOYWH7VI402R6DLQBARRI9VXG9L1,0,2424.150000093505,fish,1,255,225,176,10YR9/4,color-picker,43,138733,block1_target_trial,
full_sample,36DSNE9QZ5YXEOMJKUIF8206M7XOJS,0,4354.5000000158325,loyal,6,216,232,240,10B9/2,color-picker,43,253401,block1_target_trial,
full_sample,39PAAFCODM0MIBRLX0IX50HNG2LTV4,0,2034.9399999249727,faith,,,,,,html-slider-response,112,277974,block2_expectation_trial,35
full_sample,3KIBXJ1WD5USP8S12FIR9H0J1WXOKR,0,2341.225000011036,playfulness,13,252,190,0,5Y8/14,color-picker,28,286202,block1_target_trial,
full_sample,3JAOYWH7VI402R6DLQBARRI9VXG9L1,0,1113.0300001241267,fork,3,200,241,191,10GY9/4,color-picker,44,140373,block1_target_trial,
full_sample,3CTOC39K37QQTIUK381DXGEBWINJ7X,0,2572.4449999979697,barley,47,54,142,15,10GY5/12,color-picker,45,264965,block1_target_trial,
full_sample,3MMN5BL1WZ4YT7ZI4TBF0RUCVAWM3Z,0,1786.1249999841675,tarantula,45,170,103,0,10YR5/10,color-picker,47,287557,block1_target_trial,
full_sample,36DSNE9QZ5YXEOMJKUIF8206M7XOJS,0,1635.4699999792501,desire,4,203,237,224,10G9/2,color-picker,44,255541,block1_target_trial,
full_sample,3JAOYWH7VI402R6DLQBARRI9VXG9L1,0,1123.2199999503791,corpse,5,205,236,235,10BG9/2,color-picker,45,142093,block1_target_trial,
full_sample,3MMN5BL1WZ4YT7ZI4TBF0RUCVAWM3Z,0,1256.0649999650195,shampoo,34,231,111,0,5YR6/14,color-picker,48,289319,block1_target_trial,
full_sample,36DSNE9QZ5YXEOMJKUIF8206M7XOJS,0,1789.0599999809638,optimism,3,200,241,191,10GY9/4,color-picker,45,257836,block1_target_trial,
full_sample,3JAOYWH7VI402R6DLQBARRI9VXG9L1,0,1294.7649999987334,energy,3,200,241,191,10GY9/4,color-picker,46,143892,block1_target_trial,
full_sample,3KIBXJ1WD5USP8S12FIR9H0J1WXOKR,0,3656.7599999980303,ache,67,100,65,8,10YR3/6,color-picker,29,290365,block1_target_trial,
full_sample,3MMN5BL1WZ4YT7ZI4TBF0RUCVAWM3Z,0,1368.6049999669194,sun,13,252,190,0,5Y8/14,color-picker,49,291193,block1_target_trial,
full_sample,3CTOC39K37QQTIUK381DXGEBWINJ7X,0,3392.7350000012666,success,59,0,117,66,5G4/10,color-picker,46,268861,block1_target_trial,
full_sample,3CTOC39K37QQTIUK381DXGEBWINJ7X,0,2023.7949999864213,heaven,29,173,169,229,10PB7/8,color-picker,47,271389,block1_target_trial,
full_sample,3JAOYWH7VI402R6DLQBARRI9VXG9L1,0,2854.160000104457,computer,12,255,186,123,5YR8/8,color-picker,47,147250,block1_target_trial,
full_sample,3MMN5BL1WZ4YT7ZI4TBF0RUCVAWM3Z,0,2248.844999994617,rock,65,107,108,107,N4,color-picker,50,293949,block1_target_trial,
full_sample,3KIBXJ1WD5USP8S12FIR9H0J1WXOKR,0,4020.52000000549,boat,32,181,182,181,N7,color-picker,30,294890,block1_target_trial,
full_sample,3JAOYWH7VI402R6DLQBARRI9VXG9L1,0,1578.6899998784065,rock,8,237,227,233,10P9/2,color-picker,48,149336,block1_target_trial,
full_sample,36DSNE9QZ5YXEOMJKUIF8206M7XOJS,0,5408.8550000451505,excitement,47,54,142,15,10GY5/12,color-picker,46,263751,block1_target_trial,
full_sample,3MMN5BL1WZ4YT7ZI4TBF0RUCVAWM3Z,0,1728.560000017751,barley,2,238,234,140,10Y9/6,color-picker,51,296183,block1_target_trial,
full_sample,39PAAFCODM0MIBRLX0IX50HNG2LTV4,0,11821.394999977201,success,44,216,65,0,10R5/16,color-picker,113,289797,block2_target_trial,
full_sample,3JAOYWH7VI402R6DLQBARRI9VXG9L1,0,1388.319999910891,belt,10,233,232,231,N9,color-picker,49,151242,block1_target_trial,
full_sample,3CTOC39K37QQTIUK381DXGEBWINJ7X,0,3734.0599999879487,sadness,10,233,232,231,N9,color-picker,48,275642,block1_target_trial,
full_sample,3MMN5BL1WZ4YT7ZI4TBF0RUCVAWM3Z,0,1535.6599999940954,loyal,61,0,121,148,5B4/10,color-picker,52,298227,block1_target_trial,
full_sample,36DSNE9QZ5YXEOMJKUIF8206M7XOJS,0,1683.88500000583,fork,3,200,241,191,10GY9/4,color-picker,47,265940,block1_target_trial,
full_sample,3KIBXJ1WD5USP8S12FIR9H0J1WXOKR,0,2402.8399999951944,rose,44,216,65,0,10R5/16,color-picker,31,297796,block1_target_trial,
full_sample,3JAOYWH7VI402R6DLQBARRI9VXG9L1,0,1355.8100000955164,temptation,20,246,186,205,5RP8/6,color-picker,50,153103,block1_target_trial,
full_sample,39PAAFCODM0MIBRLX0IX50HNG2LTV4,0,1561.8400000967085,success,,,,,,html-slider-response,114,291863,block2_expectation_trial,21
full_sample,3MMN5BL1WZ4YT7ZI4TBF0RUCVAWM3Z,0,1587.2950000339188,gloom,87,59,58,58,N2,color-picker,53,300325,block1_target_trial,
full_sample,3CTOC39K37QQTIUK381DXGEBWINJ7X,0,2331.6650000051595,appearance,22,254,147,109,10R7/10,color-picker,49,278477,block1_target_trial,
full_sample,39PAAFCODM0MIBRLX0IX50HNG2LTV4,0,1787.5400001648813,loyal,35,187,139,0,5Y6/10,color-picker,115,293652,block2_target_trial,
full_sample,36DSNE9QZ5YXEOMJKUIF8206M7XOJS,0,3394.3499999586493,computer,5,205,236,235,10BG9/2,color-picker,48,269840,block1_target_trial,
full_sample,3KIBXJ1WD5USP8S12FIR9H0J1WXOKR,0,3901.9100000004983,tarantula,87,59,58,58,N2,color-picker,32,302203,block1_target_trial,
full_sample,3MMN5BL1WZ4YT7ZI4TBF0RUCVAWM3Z,0,2209.035000007134,temptation,47,54,142,15,10GY5/12,color-picker,54,303041,block1_target_trial,
full_sample,3JAOYWH7VI402R6DLQBARRI9VXG9L1,0,2856.6000000573695,lemon,2,238,234,140,10Y9/6,color-picker,51,156463,block1_target_trial,
full_sample,3CTOC39K37QQTIUK381DXGEBWINJ7X,0,2000.9300000383519,energy,38,0,173,154,5BG6/10,color-picker,50,280981,block1_target_trial,
full_sample,39PAAFCODM0MIBRLX0IX50HNG2LTV4,0,1440.6250000465661,loyal,,,,,,html-slider-response,116,295595,block2_expectation_trial,25
full_sample,36DSNE9QZ5YXEOMJKUIF8206M7XOJS,0,1453.5299999988638,appearance,4,203,237,224,10G9/2,color-picker,49,271800,block1_target_trial,
full_sample,3MMN5BL1WZ4YT7ZI4TBF0RUCVAWM3Z,0,1251.7450000159442,energy,36,136,152,0,5GY6/10,color-picker,55,304803,block1_target_trial,
full_sample,39PAAFCODM0MIBRLX0IX50HNG2LTV4,0,1202.7899997774512,sun,13,252,190,0,5Y8/14,color-picker,117,296799,block2_target_trial,
full_sample,3JAOYWH7VI402R6DLQBARRI9VXG9L1,0,1437.9900000058115,gloom,50,0,146,196,10B5/12,color-picker,52,158443,block1_target_trial,
full_sample,36DSNE9QZ5YXEOMJKUIF8206M7XOJS,0,1544.080000021495,barley,3,200,241,191,10GY9/4,color-picker,50,273850,block1_target_trial,
full_sample,3MMN5BL1WZ4YT7ZI4TBF0RUCVAWM3Z,0,1463.8300000224262,blue,62,0,113,178,5PB4/12,color-picker,56,306773,block1_catch_trial,
full_sample,39PAAFCODM0MIBRLX0IX50HNG2LTV4,0,1756.444999948144,sun,,,,,,html-slider-response,118,299058,block2_expectation_trial,81
full_sample,3JAOYWH7VI402R6DLQBARRI9VXG9L1,0,1698.664999799803,bone,28,99,185,228,10B7/8,color-picker,53,160645,block1_target_trial,
full_sample,3KIBXJ1WD5USP8S12FIR9H0J1WXOKR,0,4325.175000005402,temptation,44,216,65,0,10R5/16,color-picker,33,307035,block1_target_trial,
full_sample,39PAAFCODM0MIBRLX0IX50HNG2LTV4,0,1104.1600001044571,bone,0,245,225,219,10R9/2,color-picker,119,300164,block2_target_trial,
full_sample,3JAOYWH7VI402R6DLQBARRI9VXG9L1,0,1473.699999973178,urge,15,135,220,178,5G8/6,color-picker,54,162623,block1_target_trial,
full_sample,39PAAFCODM0MIBRLX0IX50HNG2LTV4,0,1177.6499999687076,bone,,,,,,html-slider-response,120,301844,block2_expectation_trial,58
full_sample,36DSNE9QZ5YXEOMJKUIF8206M7XOJS,0,3344.214999990072,blue,62,0,113,178,5PB4/12,color-picker,51,277700,block1_catch_trial,
full_sample,3JAOYWH7VI402R6DLQBARRI9VXG9L1,0,1285.6000000610948,chalk,5,205,236,235,10BG9/2,color-picker,55,164414,block1_target_trial,
full_sample,39PAAFCODM0MIBRLX0IX50HNG2LTV4,0,1329.2249999940395,energy,13,252,190,0,5Y8/14,color-picker,121,303175,block2_target_trial,
full_sample,3KIBXJ1WD5USP8S12FIR9H0J1WXOKR,0,4109.805000000051,gloom,32,181,182,181,N7,color-picker,34,311650,block1_target_trial,
full_sample,39PAAFCODM0MIBRLX0IX50HNG2LTV4,0,973.509999923408,energy,,,,,,html-slider-response,122,304650,block2_expectation_trial,81
full_sample,39PAAFCODM0MIBRLX0IX50HNG2LTV4,0,192.95500009320676,fish,82,0,62,57,5BG2/6,color-picker,123,304846,block2_target_trial,
full_sample,3Y54SXRO1LLM5W2LSA8S9EF42VCTUF,0,313932.5699999972,,,,,,,html-keyboard-response,0,313955,instructions,
full_sample,3CTOC39K37QQTIUK381DXGEBWINJ7X,0,9378.544999985024,bone,5,205,236,235,10BG9/2,color-picker,51,290864,block1_target_trial,
full_sample,3JAOYWH7VI402R6DLQBARRI9VXG9L1,0,2122.349999845028,heaven,0,245,225,219,10R9/2,color-picker,56,167114,block1_target_trial,
full_sample,3MMN5BL1WZ4YT7ZI4TBF0RUCVAWM3Z,0,6625.644999963697,,,,,,,html-keyboard-response,57,313903,instructions,
full_sample,3KIBXJ1WD5USP8S12FIR9H0J1WXOKR,0,1487.1149999962654,sadness,32,181,182,181,N7,color-picker,35,313641,block1_target_trial,
full_sample,3CTOC39K37QQTIUK381DXGEBWINJ7X,0,1748.989999992773,shampoo,25,103,196,96,10GY7/10,color-picker,52,293117,block1_target_trial,
full_sample,3MMN5BL1WZ4YT7ZI4TBF0RUCVAWM3Z,0,3213.1550000049174,tarantula,66,137,34,17,10R3/10,color-picker,58,317119,block2_target_trial,
full_sample,36DSNE9QZ5YXEOMJKUIF8206M7XOJS,0,6893.5899999924,fish,54,136,137,135,N5,color-picker,52,285100,block1_target_trial,
full_sample,39PAAFCODM0MIBRLX0IX50HNG2LTV4,0,4843.959999969229,fish,,,,,,html-slider-response,124,310192,block2_expectation_trial,10
full_sample,3CTOC39K37QQTIUK381DXGEBWINJ7X,0,3542.3849999788217,corpse,80,46,52,38,5GY2/2,color-picker,53,297165,block1_target_trial,
full_sample,36DSNE9QZ5YXEOMJKUIF8206M7XOJS,0,2104.2250000173226,ache,4,203,237,224,10G9/2,color-picker,53,287709,block1_target_trial,
full_sample,3MMN5BL1WZ4YT7ZI4TBF0RUCVAWM3Z,0,2467.735000012908,tarantula,,,,,,html-slider-response,59,320091,block2_expectation_trial,38
full_sample,39PAAFCODM0MIBRLX0IX50HNG2LTV4,0,2585.135000059381,rose,33,239,107,106,5R6/12,color-picker,125,312779,block2_target_trial,
full_sample,3MMN5BL1WZ4YT7ZI4TBF0RUCVAWM3Z,0,1607.579999952577,energy,47,54,142,15,10GY5/12,color-picker,60,321701,block2_target_trial,
full_sample,3JAOYWH7VI402R6DLQBARRI9VXG9L1,0,7440.21000014618,,,,,,,html-keyboard-response,57,175057,instructions,
full_sample,39PAAFCODM0MIBRLX0IX50HNG2LTV4,0,1164.5400000270456,rose,,,,,,html-slider-response,126,314446,block2_expectation_trial,74
full_sample,36DSNE9QZ5YXEOMJKUIF8206M7XOJS,0,2385.279999987688,heroism,2,238,234,140,10Y9/6,color-picker,54,290599,block1_target_trial,
full_sample,3JAOYWH7VI402R6DLQBARRI9VXG9L1,0,1751.444999827072,shampoo,16,151,214,204,5BG8/4,color-picker,58,176813,block2_target_trial,
full_sample,39PAAFCODM0MIBRLX0IX50HNG2LTV4,0,958.8999999687076,staple,26,64,196,164,10G7/8,color-picker,127,315406,block2_target_trial,
full_sample,3KIBXJ1WD5USP8S12FIR9H0J1WXOKR,0,8903.919999997015,pheasant,10,233,232,231,N9,color-picker,36,323050,block1_target_trial,
full_sample,3MMN5BL1WZ4YT7ZI4TBF0RUCVAWM3Z,0,1629.769999999553,energy,,,,,,html-slider-response,61,323834,block2_expectation_trial,70
full_sample,3MMN5BL1WZ4YT7ZI4TBF0RUCVAWM3Z,0,1295.220000029076,belt,87,59,58,58,N2,color-picker,62,325131,block2_target_trial,
full_sample,39PAAFCODM0MIBRLX0IX50HNG2LTV4,0,1123.450000071898,staple,,,,,,html-slider-response,128,317032,block2_expectation_trial,72
full_sample,3Y54SXRO1LLM5W2LSA8S9EF42VCTUF,0,13340.130000000529,,0,,,,,html-button-response,1,327300,,
full_sample,39PAAFCODM0MIBRLX0IX50HNG2LTV4,0,1258.7999999523163,heroism,63,132,71,157,5P4/12,color-picker,129,318293,block2_target_trial,
full_sample,36DSNE9QZ5YXEOMJKUIF8206M7XOJS,0,3432.8150000073947,pain,44,216,65,0,10R5/16,color-picker,55,294539,block1_target_trial,
full_sample,3JAOYWH7VI402R6DLQBARRI9VXG9L1,0,3435.5999999679625,shampoo,,,,,,html-slider-response,59,180765,block2_expectation_trial,86
full_sample,3KIBXJ1WD5USP8S12FIR9H0J1WXOKR,0,3321.994999991148,fork,21,202,202,202,N8,color-picker,37,326878,block1_target_trial,
full_sample,39PAAFCODM0MIBRLX0IX50HNG2LTV4,0,1245.2450001146644,heroism,,,,,,html-slider-response,130,320040,block2_expectation_trial,63
full_sample,3JAOYWH7VI402R6DLQBARRI9VXG9L1,0,1321.7599999625236,success,28,99,185,228,10B7/8,color-picker,60,182093,block2_target_trial,
full_sample,36DSNE9QZ5YXEOMJKUIF8206M7XOJS,0,1802.079999994021,urge,3,200,241,191,10GY9/4,color-picker,56,296849,block1_target_trial,
full_sample,3CTOC39K37QQTIUK381DXGEBWINJ7X,0,9392.244999995455,excitement,13,252,190,0,5Y8/14,color-picker,54,307061,block1_target_trial,
full_sample,39PAAFCODM0MIBRLX0IX50HNG2LTV4,0,1325.3099999856204,belt,87,59,58,58,N2,color-picker,131,321367,block2_target_trial,
full_sample,3MMN5BL1WZ4YT7ZI4TBF0RUCVAWM3Z,0,5176.985000027344,belt,,,,,,html-slider-response,63,330812,block2_expectation_trial,48
full_sample,39PAAFCODM0MIBRLX0IX50HNG2LTV4,0,1069.5350000169128,belt,,,,,,html-slider-response,132,322938,block2_expectation_trial,71
full_sample,3JAOYWH7VI402R6DLQBARRI9VXG9L1,0,2541.3299999199808,success,,,,,,html-slider-response,61,185140,block2_expectation_trial,71
full_sample,39PAAFCODM0MIBRLX0IX50HNG2LTV4,0,1186.4749998785555,boat,50,0,146,196,10B5/12,color-picker,133,324126,block2_target_trial,
full_sample,36DSNE9QZ5YXEOMJKUIF8206M7XOJS,0,2903.63499999512,,,,,,,html-keyboard-response,57,300256,instructions,
full_sample,3MMN5BL1WZ4YT7ZI4TBF0RUCVAWM3Z,0,2408.259999996517,success,50,0,146,196,10B5/12,color-picker,64,333222,block2_target_trial,
full_sample,3JAOYWH7VI402R6DLQBARRI9VXG9L1,0,1651.045000180602,faith,27,29,194,202,10BG7/8,color-picker,62,186795,block2_target_trial,
full_sample,39PAAFCODM0MIBRLX0IX50HNG2LTV4,0,902.7899999637157,boat,,,,,,html-slider-response,134,325531,block2_expectation_trial,72
full_sample,3CTOC39K37QQTIUK381DXGEBWINJ7X,0,4598.844999971334,pain,55,190,26,52,5R4/14,color-picker,55,312165,block1_target_trial,
full_sample,3MMN5BL1WZ4YT7ZI4TBF0RUCVAWM3Z,0,1379.3149999692105,success,,,,,,html-slider-response,65,335104,block2_expectation_trial,65
full_sample,3JAOYWH7VI402R6DLQBARRI9VXG9L1,0,1829.8750000540167,faith,,,,,,html-slider-response,63,189129,block2_expectation_trial,62
full_sample,39PAAFCODM0MIBRLX0IX50HNG2LTV4,0,2272.340000141412,relief,44,216,65,0,10R5/16,color-picker,135,327805,block2_target_trial,
full_sample,3MMN5BL1WZ4YT7ZI4TBF0RUCVAWM3Z,0,1239.9049999658018,sadness,72,0,79,142,10B3/10,color-picker,66,336346,block2_target_trial,
full_sample,3KIBXJ1WD5USP8S12FIR9H0J1WXOKR,0,9043.724999995902,faith,44,216,65,0,10R5/16,color-picker,38,336425,block1_target_trial,
full_sample,36DSNE9QZ5YXEOMJKUIF8206M7XOJS,0,4651.215000019874,success,47,54,142,15,10GY5/12,color-picker,58,304918,block2_target_trial,
full_sample,3JAOYWH7VI402R6DLQBARRI9VXG9L1,0,1662.8600000403821,lemon,26,64,196,164,10G7/8,color-picker,64,190795,block2_target_trial,
full_sample,39PAAFCODM0MIBRLX0IX50HNG2LTV4,0,1600.1049999613315,relief,,,,,,html-slider-response,136,329908,block2_expectation_trial,67
full_sample,3MMN5BL1WZ4YT7ZI4TBF0RUCVAWM3Z,0,1772.6850000326522,sadness,,,,,,html-slider-response,67,338622,block2_expectation_trial,79
full_sample,39PAAFCODM0MIBRLX0IX50HNG2LTV4,0,1209.559999871999,divinity,38,0,173,154,5BG6/10,color-picker,137,331119,block2_target_trial,
full_sample,3JAOYWH7VI402R6DLQBARRI9VXG9L1,0,1864.9999999906868,lemon,,,,,,html-slider-response,65,193174,block2_expectation_trial,73
full_sample,3KIBXJ1WD5USP8S12FIR9H0J1WXOKR,0,2548.945000002277,chalk,10,233,232,231,N9,color-picker,39,339480,block1_target_trial,
full_sample,3MMN5BL1WZ4YT7ZI4TBF0RUCVAWM3Z,0,1687.7600000007078,bone,21,202,202,202,N8,color-picker,68,340311,block2_target_trial,
full_sample,3CTOC39K37QQTIUK381DXGEBWINJ7X,0,5664.170000003651,rock,65,107,108,107,N4,color-picker,56,318333,block1_target_trial,
full_sample,3JAOYWH7VI402R6DLQBARRI9VXG9L1,0,1476.024999981746,toe,25,103,196,96,10GY7/10,color-picker,66,194653,block2_target_trial,
full_sample,39PAAFCODM0MIBRLX0IX50HNG2LTV4,0,1688.8749999925494,divinity,,,,,,html-slider-response,138,333311,block2_expectation_trial,20
full_sample,3MMN5BL1WZ4YT7ZI4TBF0RUCVAWM3Z,0,1731.3849999918602,bone,,,,,,html-slider-response,69,342546,block2_expectation_trial,76
full_sample,3JAOYWH7VI402R6DLQBARRI9VXG9L1,0,1831.464999821037,toe,,,,,,html-slider-response,67,196988,block2_expectation_trial,69
full_sample,3MMN5BL1WZ4YT7ZI4TBF0RUCVAWM3Z,0,1287.8299999865703,barley,2,238,234,140,10Y9/6,color-picker,70,343836,block2_target_trial,
full_sample,3JAOYWH7VI402R6DLQBARRI9VXG9L1,0,1372.1050000749528,pheasant,27,29,194,202,10BG7/8,color-picker,68,198364,block2_target_trial,
full_sample,3MMN5BL1WZ4YT7ZI4TBF0RUCVAWM3Z,0,1628.4400000004098,barley,,,,,,html-slider-response,71,345968,block2_expectation_trial,74
full_sample,3JAOYWH7VI402R6DLQBARRI9VXG9L1,0,2093.8699999824166,pheasant,,,,,,html-slider-response,69,201050,block2_expectation_trial,68
full_sample,3MMN5BL1WZ4YT7ZI4TBF0RUCVAWM3Z,0,1887.8350000013597,rose,55,190,26,52,5R4/14,color-picker,72,347857,block2_target_trial,
full_sample,3JAOYWH7VI402R6DLQBARRI9VXG9L1,0,1431.8099999800324,pain,18,173,204,247,5PB8/6,color-picker,70,202486,block2_target_trial,
full_sample,3KIBXJ1WD5USP8S12FIR9H0J1WXOKR,0,8815.159999998286,loyal,47,54,142,15,10GY5/12,color-picker,40,348798,block1_target_trial,
full_sample,3MMN5BL1WZ4YT7ZI4TBF0RUCVAWM3Z,0,1402.524999983143,rose,,,,,,html-slider-response,73,349764,block2_expectation_trial,77
full_sample,3KIBXJ1WD5USP8S12FIR9H0J1WXOKR,0,1524.7749999980442,pain,44,216,65,0,10R5/16,color-picker,41,350827,block1_target_trial,
full_sample,3JAOYWH7VI402R6DLQBARRI9VXG9L1,0,2265.8849998842925,pain,,,,,,html-slider-response,71,205255,block2_expectation_trial,72
full_sample,3MMN5BL1WZ4YT7ZI4TBF0RUCVAWM3Z,0,2233.8999999919906,loyal,47,54,142,15,10GY5/12,color-picker,74,351999,block2_target_trial,
full_sample,39PAAFCODM0MIBRLX0IX50HNG2LTV4,0,10581.44999993965,,,,,,,survey-html-form,139,343894,survey,
full_sample,3JAOYWH7VI402R6DLQBARRI9VXG9L1,0,1440.9399998839945,sun,36,136,152,0,5GY6/10,color-picker,72,206701,block2_target_trial,
full_sample,3KIBXJ1WD5USP8S12FIR9H0J1WXOKR,0,1665.0749999971595,lemon,13,252,190,0,5Y8/14,color-picker,42,352997,block1_target_trial,
full_sample,3MMN5BL1WZ4YT7ZI4TBF0RUCVAWM3Z,0,1395.9500000346452,loyal,,,,,,html-slider-response,75,353898,block2_expectation_trial,38
full_sample,3MMN5BL1WZ4YT7ZI4TBF0RUCVAWM3Z,0,1751.7099999822676,desire,63,132,71,157,5P4/12,color-picker,76,355651,block2_target_trial,
full_sample,3JAOYWH7VI402R6DLQBARRI9VXG9L1,0,1723.7200001254678,sun,,,,,,html-slider-response,73,209036,block2_expectation_trial,72
full_sample,3JAOYWH7VI402R6DLQBARRI9VXG9L1,0,1589.5549999549985,romance,14,184,216,68,5GY8/10,color-picker,74,210629,block2_target_trial,
full_sample,3KIBXJ1WD5USP8S12FIR9H0J1WXOKR,0,3388.919999997597,heroism,87,59,58,58,N2,color-picker,43,356891,block1_target_trial,
full_sample,3Y54SXRO1LLM5W2LSA8S9EF42VCTUF,0,31151.83999999857,,,,,,,html-keyboard-response,2,358453,instructions,
full_sample,36DSNE9QZ5YXEOMJKUIF8206M7XOJS,0,20663.425000035204,success,,,,,,html-slider-response,59,326093,block2_expectation_trial,80
full_sample,3JAOYWH7VI402R6DLQBARRI9VXG9L1,0,2195.4400001559407,romance,,,,,,html-slider-response,75,213330,block2_expectation_trial,74
full_sample,3Y54SXRO1LLM5W2LSA8S9EF42VCTUF,0,2618.5499999992317,,,,,,,image-keyboard-response,3,361075,colorblindness_trial,
full_sample,3MMN5BL1WZ4YT7ZI4TBF0RUCVAWM3Z,0,4311.380000028294,desire,,,,,,html-slider-response,77,360466,block2_expectation_trial,61
full_sample,3KIBXJ1WD5USP8S12FIR9H0J1WXOKR,0,2884.1300000058254,urge,44,216,65,0,10R5/16,color-picker,44,360279,block1_target_trial,
full_sample,36DSNE9QZ5YXEOMJKUIF8206M7XOJS,0,2414.5450000069104,relief,2,238,234,140,10Y9/6,color-picker,60,328512,block2_target_trial,
full_sample,3JAOYWH7VI402R6DLQBARRI9VXG9L1,0,1350.8800000417978,computer,28,99,185,228,10B7/8,color-picker,76,214685,block2_target_trial,
full_sample,3Y54SXRO1LLM5W2LSA8S9EF42VCTUF,0,1622.160000002652,,,,,,,image-keyboard-response,4,362699,colorblindness_trial,
full_sample,3MMN5BL1WZ4YT7ZI4TBF0RUCVAWM3Z,0,1471.9800000311807,urge,44,216,65,0,10R5/16,color-picker,78,361940,block2_target_trial,
full_sample,3KIBXJ1WD5USP8S12FIR9H0J1WXOKR,0,1546.7999999964377,desire,44,216,65,0,10R5/16,color-picker,45,362330,block1_target_trial,
full_sample,3Y54SXRO1LLM5W2LSA8S9EF42VCTUF,0,1791.8649999992922,,,,,,,image-keyboard-response,5,364492,colorblindness_trial,
full_sample,3JAOYWH7VI402R6DLQBARRI9VXG9L1,0,2126.020000083372,computer,,,,,,html-slider-response,77,217314,block2_expectation_trial,75
full_sample,3MMN5BL1WZ4YT7ZI4TBF0RUCVAWM3Z,0,1869.2300000111572,urge,,,,,,html-slider-response,79,364312,block2_expectation_trial,35
full_sample,3JAOYWH7VI402R6DLQBARRI9VXG9L1,0,1344.1650001332164,mansion,13,252,190,0,5Y8/14,color-picker,78,218664,block2_target_trial,
full_sample,3MMN5BL1WZ4YT7ZI4TBF0RUCVAWM3Z,0,1240.059999981895,pain,55,190,26,52,5R4/14,color-picker,80,365554,block2_target_trial,
full_sample,3KIBXJ1WD5USP8S12FIR9H0J1WXOKR,0,3224.335000006249,blue,72,0,79,142,10B3/10,color-picker,46,366061,block1_catch_trial,
full_sample,3MMN5BL1WZ4YT7ZI4TBF0RUCVAWM3Z,0,1611.849999986589,pain,,,,,,html-slider-response,81,367667,block2_expectation_trial,75
full_sample,3JAOYWH7VI402R6DLQBARRI9VXG9L1,0,2165.0900000240654,mansion,,,,,,html-slider-response,79,221332,block2_expectation_trial,75
full_sample,3MMN5BL1WZ4YT7ZI4TBF0RUCVAWM3Z,0,1616.0350000136532,faith,50,0,146,196,10B5/12,color-picker,82,369285,block2_target_trial,
full_sample,3Y54SXRO1LLM5W2LSA8S9EF42VCTUF,0,5824.830000001355,,,,,,,html-keyboard-response,6,370319,instructions,
full_sample,3JAOYWH7VI402R6DLQBARRI9VXG9L1,0,1514.5449999254197,staple,4,203,237,224,10G9/2,color-picker,80,222850,block2_target_trial,
full_sample,36DSNE9QZ5YXEOMJKUIF8206M7XOJS,0,9305.494999978691,relief,,,,,,html-slider-response,61,338321,block2_expectation_trial,57
full_sample,3MMN5BL1WZ4YT7ZI4TBF0RUCVAWM3Z,0,1509.5100000035018,faith,,,,,,html-slider-response,83,371298,block2_expectation_trial,59
full_sample,3KIBXJ1WD5USP8S12FIR9H0J1WXOKR,0,4197.145000012824,shampoo,10,233,232,231,N9,color-picker,47,370765,block1_target_trial,
full_sample,3JAOYWH7VI402R6DLQBARRI9VXG9L1,0,2081.230000127107,staple,,,,,,html-slider-response,81,225434,block2_expectation_trial,77
full_sample,3Y54SXRO1LLM5W2LSA8S9EF42VCTUF,0,2741.3699999997625,,,,,,,html-keyboard-response,7,373062,instructions,
full_sample,3MMN5BL1WZ4YT7ZI4TBF0RUCVAWM3Z,0,1831.1700000194833,boat,59,0,117,66,5G4/10,color-picker,84,373131,block2_target_trial,
full_sample,3JAOYWH7VI402R6DLQBARRI9VXG9L1,0,1677.3049999028444,robin,1,255,225,176,10YR9/4,color-picker,82,227116,block2_target_trial,
full_sample,3KIBXJ1WD5USP8S12FIR9H0J1WXOKR,0,1946.0350000008475,optimism,13,252,190,0,5Y8/14,color-picker,48,373217,block1_target_trial,
full_sample,3MMN5BL1WZ4YT7ZI4TBF0RUCVAWM3Z,0,1290.6400000210851,boat,,,,,,html-slider-response,85,374926,block2_expectation_trial,57
full_sample,3Y54SXRO1LLM5W2LSA8S9EF42VCTUF,0,2891.3699999975506,green,47,54,142,15,10GY5/12,color-picker,8,375957,color_trial,
full_sample,3KIBXJ1WD5USP8S12FIR9H0J1WXOKR,0,1306.895000001532,romance,44,216,65,0,10R5/16,color-picker,49,375029,block1_target_trial,
full_sample,36DSNE9QZ5YXEOMJKUIF8206M7XOJS,0,5265.494999999646,bone,3,200,241,191,10GY9/4,color-picker,62,343591,block2_target_trial,
full_sample,3JAOYWH7VI402R6DLQBARRI9VXG9L1,0,1944.0500000491738,robin,,,,,,html-slider-response,83,229564,block2_expectation_trial,74
full_sample,3MMN5BL1WZ4YT7ZI4TBF0RUCVAWM3Z,0,1567.8399999742396,optimism,2,238,234,140,10Y9/6,color-picker,86,376496,block2_target_trial,
full_sample,3JAOYWH7VI402R6DLQBARRI9VXG9L1,0,1351.9349999260157,bone,15,135,220,178,5G8/6,color-picker,84,230924,block2_target_trial,
full_sample,3MMN5BL1WZ4YT7ZI4TBF0RUCVAWM3Z,0,1612.8499999758787,optimism,,,,,,html-slider-response,87,378612,block2_expectation_trial,68
full_sample,3KIBXJ1WD5USP8S12FIR9H0J1WXOKR,0,3271.339999992051,staple,21,202,202,202,N8,color-picker,50,378805,block1_target_trial,
full_sample,3MMN5BL1WZ4YT7ZI4TBF0RUCVAWM3Z,0,1342.4200000008568,fish,50,0,146,196,10B5/12,color-picker,88,379956,block2_target_trial,
full_sample,3JAOYWH7VI402R6DLQBARRI9VXG9L1,0,2317.1949998941272,bone,,,,,,html-slider-response,85,233744,block2_expectation_trial,83
full_sample,3Y54SXRO1LLM5W2LSA8S9EF42VCTUF,0,4937.904999998864,red,55,190,26,52,5R4/14,color-picker,9,381400,catch_trial_color_trials,
full_sample,3JAOYWH7VI402R6DLQBARRI9VXG9L1,0,1287.0100000873208,red,26,64,196,164,10G7/8,color-picker,86,235035,block2_catch_trial,
full_sample,3MMN5BL1WZ4YT7ZI4TBF0RUCVAWM3Z,0,1485.4700000141747,fish,,,,,,html-slider-response,89,381944,block2_expectation_trial,68
full_sample,3KIBXJ1WD5USP8S12FIR9H0J1WXOKR,0,2245.8500000066124,success,47,54,142,15,10GY5/12,color-picker,51,381555,block1_target_trial,
full_sample,36DSNE9QZ5YXEOMJKUIF8206M7XOJS,0,5954.904999991413,bone,,,,,,html-slider-response,63,350050,block2_expectation_trial,59
full_sample,3MMN5BL1WZ4YT7ZI4TBF0RUCVAWM3Z,0,1575.5400000489317,excitement,24,203,172,0,10Y7/12,color-picker,90,383522,block2_target_trial,
full_sample,39PAAFCODM0MIBRLX0IX50HNG2LTV4,0,31678.43500012532,,0,,,,,html-button-response,140,375575,,
full_sample,3Y54SXRO1LLM5W2LSA8S9EF42VCTUF,0,2888.2300000005052,yellow,13,252,190,0,5Y8/14,color-picker,10,384792,color_trial,
full_sample,36DSNE9QZ5YXEOMJKUIF8206M7XOJS,0,2414.7000000230037,urge,5,205,236,235,10BG9/2,color-picker,64,352470,block2_target_trial,
full_sample,3MMN5BL1WZ4YT7ZI4TBF0RUCVAWM3Z,0,1387.2299999929965,excitement,,,,,,html-slider-response,91,385412,block2_expectation_trial,65
full_sample,3KIBXJ1WD5USP8S12FIR9H0J1WXOKR,0,4161.244999995688,appearance,47,54,142,15,10GY5/12,color-picker,52,386220,block1_target_trial,
full_sample,3MMN5BL1WZ4YT7ZI4TBF0RUCVAWM3Z,0,1959.6099999616854,temptation,55,190,26,52,5R4/14,color-picker,92,387373,block2_target_trial,
full_sample,3Y54SXRO1LLM5W2LSA8S9EF42VCTUF,0,4432.059999999183,purple,85,73,31,87,5P2/8,color-picker,11,389728,color_trial,
full_sample,3MMN5BL1WZ4YT7ZI4TBF0RUCVAWM3Z,0,1509.970000013709,temptation,,,,,,html-slider-response,93,389386,block2_expectation_trial,70
full_sample,36DSNE9QZ5YXEOMJKUIF8206M7XOJS,0,4934.034999983851,urge,,,,,,html-slider-response,65,357910,block2_expectation_trial,61
full_sample,3MMN5BL1WZ4YT7ZI4TBF0RUCVAWM3Z,0,2119.635000010021,computer,40,96,151,219,5PB6/10,color-picker,94,391507,block2_target_trial,
full_sample,3KIBXJ1WD5USP8S12FIR9H0J1WXOKR,0,5129.390000001877,toe,56,146,80,27,5YR4/8,color-picker,53,391854,block1_target_trial,
full_sample,3CTOC39K37QQTIUK381DXGEBWINJ7X,0,52141.40000002226,,,,,,,html-keyboard-response,57,370991,instructions,
full_sample,36DSNE9QZ5YXEOMJKUIF8206M7XOJS,0,3234.9649999523535,pain,44,216,65,0,10R5/16,color-picker,66,361150,block2_target_trial,
full_sample,3JAOYWH7VI402R6DLQBARRI9VXG9L1,0,11383.670000126585,,0,,,,,html-button-response,87,246927,catch_failed_node,
full_sample,3Y54SXRO1LLM5W2LSA8S9EF42VCTUF,0,4427.954999999143,blue,62,0,113,178,5PB4/12,color-picker,12,394660,catch_trial_color_trials,
full_sample,3MMN5BL1WZ4YT7ZI4TBF0RUCVAWM3Z,0,1846.0699999704957,computer,,,,,,html-slider-response,95,393856,block2_expectation_trial,53
full_sample,3KIBXJ1WD5USP8S12FIR9H0J1WXOKR,0,2429.7500000102445,belt,87,59,58,58,N2,color-picker,54,394790,block1_target_trial,
full_sample,3MMN5BL1WZ4YT7ZI4TBF0RUCVAWM3Z,0,1839.5299999974668,lemon,13,252,190,0,5Y8/14,color-picker,96,395697,block2_target_trial,
full_sample,3CTOC39K37QQTIUK381DXGEBWINJ7X,0,2569.499999983236,corpse,79,56,49,32,5Y2/2,color-picker,58,373564,block2_target_trial,
full_sample,3Y54SXRO1LLM5W2LSA8S9EF42VCTUF,0,2230.7500000024447,orange,34,231,111,0,5YR6/14,color-picker,13,397394,color_trial,
full_sample,3KIBXJ1WD5USP8S12FIR9H0J1WXOKR,0,1575.6899999978486,energy,13,252,190,0,5Y8/14,color-picker,55,396870,block1_target_trial,
full_sample,3MMN5BL1WZ4YT7ZI4TBF0RUCVAWM3Z,0,1885.6200000154786,lemon,,,,,,html-slider-response,97,398085,block2_expectation_trial,86
full_sample,36DSNE9QZ5YXEOMJKUIF8206M7XOJS,0,4744.925000006333,pain,,,,,,html-slider-response,67,366399,block2_expectation_trial,78
full_sample,3KIBXJ1WD5USP8S12FIR9H0J1WXOKR,0,920.2700000023469,excitement,13,252,190,0,5Y8/14,color-picker,56,398297,block1_target_trial,
full_sample,3MMN5BL1WZ4YT7ZI4TBF0RUCVAWM3Z,0,2302.945000003092,corpse,44,216,65,0,10R5/16,color-picker,98,400391,block2_target_trial,
full_sample,36DSNE9QZ5YXEOMJKUIF8206M7XOJS,0,1975.8600000059232,desire,1,255,225,176,10YR9/4,color-picker,68,368380,block2_target_trial,
full_sample,3MMN5BL1WZ4YT7ZI4TBF0RUCVAWM3Z,0,1171.7000000062399,corpse,,,,,,html-slider-response,99,402066,block2_expectation_trial,61
full_sample,3CTOC39K37QQTIUK381DXGEBWINJ7X,0,5758.919999992941,corpse,,,,,,html-slider-response,59,379828,block2_expectation_trial,38
full_sample,3Y54SXRO1LLM5W2LSA8S9EF42VCTUF,0,5609.830000001239,pink,33,239,107,106,5R6/12,color-picker,14,403508,color_trial,
full_sample,3MMN5BL1WZ4YT7ZI4TBF0RUCVAWM3Z,0,1727.8250000090338,relief,72,0,79,142,10B3/10,color-picker,100,403795,block2_target_trial,
full_sample,3CTOC39K37QQTIUK381DXGEBWINJ7X,0,2148.6600000062026,fish,27,29,194,202,10BG7/8,color-picker,60,381980,block2_target_trial,
full_sample,3MMN5BL1WZ4YT7ZI4TBF0RUCVAWM3Z,0,1252.9400000348687,relief,,,,,,html-slider-response,101,405552,block2_expectation_trial,56
full_sample,36DSNE9QZ5YXEOMJKUIF8206M7XOJS,0,4644.280000007711,desire,,,,,,html-slider-response,69,373529,block2_expectation_trial,56
full_sample,3MMN5BL1WZ4YT7ZI4TBF0RUCVAWM3Z,0,1385.3250000393018,red,55,190,26,52,5R4/14,color-picker,102,406939,block2_catch_trial,
full_sample,3CTOC39K37QQTIUK381DXGEBWINJ7X,0,2593.779999995604,fish,,,,,,html-slider-response,61,385076,block2_expectation_trial,86
full_sample,3KIBXJ1WD5USP8S12FIR9H0J1WXOKR,0,8137.675000005402,,,,,,,html-keyboard-response,57,406937,instructions,
full_sample,3KIBXJ1WD5USP8S12FIR9H0J1WXOKR,0,1171.4500000089174,sun,13,252,190,0,5Y8/14,color-picker,58,408112,block2_target_trial,
full_sample,3MMN5BL1WZ4YT7ZI4TBF0RUCVAWM3Z,0,2510.424999985844,rock,87,59,58,58,N2,color-picker,103,409955,block2_target_trial,
full_sample,36DSNE9QZ5YXEOMJKUIF8206M7XOJS,0,5005.449999996927,red,44,216,65,0,10R5/16,color-picker,70,378538,block2_catch_trial,
full_sample,3CTOC39K37QQTIUK381DXGEBWINJ7X,0,4612.725000013597,romance,55,190,26,52,5R4/14,color-picker,62,389692,block2_target_trial,
full_sample,3MMN5BL1WZ4YT7ZI4TBF0RUCVAWM3Z,0,1771.3600000133738,rock,,,,,,html-slider-response,104,412231,block2_expectation_trial,83
full_sample,3KIBXJ1WD5USP8S12FIR9H0J1WXOKR,0,5144.9699999939185,sun,,,,,,html-slider-response,59,413762,block2_expectation_trial,98
full_sample,3MMN5BL1WZ4YT7ZI4TBF0RUCVAWM3Z,0,2810.1950000273064,gloom,82,0,62,57,5BG2/6,color-picker,105,415043,block2_target_trial,
full_sample,3CTOC39K37QQTIUK381DXGEBWINJ7X,0,3200.920000032056,romance,,,,,,html-slider-response,63,393397,block2_expectation_trial,100
full_sample,3KIBXJ1WD5USP8S12FIR9H0J1WXOKR,0,2051.705000005313,energy,13,252,190,0,5Y8/14,color-picker,60,415818,block2_target_trial,
full_sample,36DSNE9QZ5YXEOMJKUIF8206M7XOJS,0,5434.6300000324845,faith,47,54,142,15,10GY5/12,color-picker,71,384482,block2_target_trial,
full_sample,3MMN5BL1WZ4YT7ZI4TBF0RUCVAWM3Z,0,1794.705000007525,gloom,,,,,,html-slider-response,106,417342,block2_expectation_trial,35
full_sample,3CTOC39K37QQTIUK381DXGEBWINJ7X,0,2299.924999999348,heaven,17,158,211,223,5B8/4,color-picker,64,395700,block2_target_trial,
full_sample,3MMN5BL1WZ4YT7ZI4TBF0RUCVAWM3Z,0,1551.7300000065006,toe,87,59,58,58,N2,color-picker,107,418895,block2_target_trial,
full_sample,3KIBXJ1WD5USP8S12FIR9H0J1WXOKR,0,2234.345000004396,energy,,,,,,html-slider-response,61,418556,block2_expectation_trial,69
full_sample,3MMN5BL1WZ4YT7ZI4TBF0RUCVAWM3Z,0,1365.6849999679253,toe,,,,,,html-slider-response,108,420763,block2_expectation_trial,71
full_sample,3CTOC39K37QQTIUK381DXGEBWINJ7X,0,2256.9449999718927,heaven,,,,,,html-slider-response,65,398460,block2_expectation_trial,13
full_sample,3KIBXJ1WD5USP8S12FIR9H0J1WXOKR,0,2265.6499999866355,corpse,44,216,65,0,10R5/16,color-picker,62,420823,block2_target_trial,
full_sample,3MMN5BL1WZ4YT7ZI4TBF0RUCVAWM3Z,0,1263.890000001993,playfulness,35,187,139,0,5Y6/10,color-picker,109,422029,block2_target_trial,
full_sample,36DSNE9QZ5YXEOMJKUIF8206M7XOJS,0,5656.279999995604,faith,,,,,,html-slider-response,72,390643,block2_expectation_trial,93
full_sample,3CTOC39K37QQTIUK381DXGEBWINJ7X,0,3244.944999984,rock,54,136,137,135,N5,color-picker,66,401708,block2_target_trial,
full_sample,3MMN5BL1WZ4YT7ZI4TBF0RUCVAWM3Z,0,1602.2700000321493,playfulness,,,,,,html-slider-response,110,424135,block2_expectation_trial,54
full_sample,3KIBXJ1WD5USP8S12FIR9H0J1WXOKR,0,2557.220000002417,corpse,,,,,,html-slider-response,63,423883,block2_expectation_trial,23
full_sample,36DSNE9QZ5YXEOMJKUIF8206M7XOJS,0,2222.5350000080653,corpse,3,200,241,191,10GY9/4,color-picker,73,392871,block2_target_trial,
full_sample,3CTOC39K37QQTIUK381DXGEBWINJ7X,0,2201.385000022128,rock,,,,,,html-slider-response,67,404412,block2_expectation_trial,75
full_sample,3MMN5BL1WZ4YT7ZI4TBF0RUCVAWM3Z,0,2889.679999963846,appearance,47,54,142,15,10GY5/12,color-picker,111,427027,block2_target_trial,
full_sample,3KIBXJ1WD5USP8S12FIR9H0J1WXOKR,0,3721.6300000000047,heaven,28,99,185,228,10B7/8,color-picker,64,427607,block2_target_trial,
full_sample,3MMN5BL1WZ4YT7ZI4TBF0RUCVAWM3Z,0,1514.5500000216998,appearance,,,,,,html-slider-response,112,429045,block2_expectation_trial,62
full_sample,3CTOC39K37QQTIUK381DXGEBWINJ7X,0,2980.870000028517,robin,22,254,147,109,10R7/10,color-picker,68,407396,block2_target_trial,
full_sample,3MMN5BL1WZ4YT7ZI4TBF0RUCVAWM3Z,0,1335.964999976568,mansion,46,141,120,0,10Y5/8,color-picker,113,430383,block2_target_trial,
full_sample,3KIBXJ1WD5USP8S12FIR9H0J1WXOKR,0,2825.924999997369,heaven,,,,,,html-slider-response,65,430936,block2_expectation_trial,64
full_sample,36DSNE9QZ5YXEOMJKUIF8206M7XOJS,0,5821.144999994431,corpse,,,,,,html-slider-response,74,399197,block2_expectation_trial,65
full_sample,3MMN5BL1WZ4YT7ZI4TBF0RUCVAWM3Z,0,1956.6150000318885,mansion,,,,,,html-slider-response,114,432844,block2_expectation_trial,64
full_sample,3KIBXJ1WD5USP8S12FIR9H0J1WXOKR,0,2091.3500000024214,loyal,47,54,142,15,10GY5/12,color-picker,66,433031,block2_target_trial,
full_sample,3CTOC39K37QQTIUK381DXGEBWINJ7X,0,4041.254999989178,robin,,,,,,html-slider-response,69,411940,block2_expectation_trial,5
full_sample,3MMN5BL1WZ4YT7ZI4TBF0RUCVAWM3Z,0,1487.7500000293367,fork,62,0,113,178,5PB4/12,color-picker,115,434333,block2_target_trial,
full_sample,3KIBXJ1WD5USP8S12FIR9H0J1WXOKR,0,2135.760000004666,loyal,,,,,,html-slider-response,67,435670,block2_expectation_trial,5
full_sample,3MMN5BL1WZ4YT7ZI4TBF0RUCVAWM3Z,0,1476.4199999626726,fork,,,,,,html-slider-response,116,436312,block2_expectation_trial,66
full_sample,3MMN5BL1WZ4YT7ZI4TBF0RUCVAWM3Z,0,1200.0250000273809,heroism,35,187,139,0,5Y6/10,color-picker,117,437513,block2_target_trial,
full_sample,3KIBXJ1WD5USP8S12FIR9H0J1WXOKR,0,1721.30499999912,success,47,54,142,15,10GY5/12,color-picker,68,437394,block2_target_trial,
full_sample,36DSNE9QZ5YXEOMJKUIF8206M7XOJS,0,7438.364999950863,heroism,27,29,194,202,10BG7/8,color-picker,75,406641,block2_target_trial,
full_sample,3MMN5BL1WZ4YT7ZI4TBF0RUCVAWM3Z,0,1331.9350000238046,heroism,,,,,,html-slider-response,118,439348,block2_expectation_trial,68
full_sample,3CTOC39K37QQTIUK381DXGEBWINJ7X,0,5252.604999986943,optimism,28,99,185,228,10B7/8,color-picker,70,417195,block2_target_trial,
full_sample,3KIBXJ1WD5USP8S12FIR9H0J1WXOKR,0,1881.4999999885913,success,,,,,,html-slider-response,69,439780,block2_expectation_trial,90
full_sample,3MMN5BL1WZ4YT7ZI4TBF0RUCVAWM3Z,0,1471.8850000062957,divinity,62,0,113,178,5PB4/12,color-picker,119,440821,block2_target_trial,
full_sample,3CTOC39K37QQTIUK381DXGEBWINJ7X,0,1728.324999974575,optimism,,,,,,html-slider-response,71,419428,block2_expectation_trial,32
full_sample,3MMN5BL1WZ4YT7ZI4TBF0RUCVAWM3Z,0,1315.4649999924004,divinity,,,,,,html-slider-response,120,442640,block2_expectation_trial,70
full_sample,36DSNE9QZ5YXEOMJKUIF8206M7XOJS,0,3835.0199999986216,heroism,,,,,,html-slider-response,76,410982,block2_expectation_trial,61
full_sample,3MMN5BL1WZ4YT7ZI4TBF0RUCVAWM3Z,0,1295.6049999920651,sun,13,252,190,0,5Y8/14,color-picker,121,443937,block2_target_trial,
full_sample,3KIBXJ1WD5USP8S12FIR9H0J1WXOKR,0,4627.075000011246,sadness,32,181,182,181,N7,color-picker,70,444409,block2_target_trial,
full_sample,3MMN5BL1WZ4YT7ZI4TBF0RUCVAWM3Z,0,1525.6350000272505,sun,,,,,,html-slider-response,122,445966,block2_expectation_trial,74
full_sample,36DSNE9QZ5YXEOMJKUIF8206M7XOJS,0,3413.174999994226,rose,33,239,107,106,5R6/12,color-picker,77,414400,block2_target_trial,
full_sample,3KIBXJ1WD5USP8S12FIR9H0J1WXOKR,0,1756.0749999975087,sadness,,,,,,html-slider-response,71,446669,block2_expectation_trial,22
full_sample,3MMN5BL1WZ4YT7ZI4TBF0RUCVAWM3Z,0,1357.6699999975972,pheasant,46,141,120,0,10Y5/8,color-picker,123,447325,block2_target_trial,
full_sample,3KIBXJ1WD5USP8S12FIR9H0J1WXOKR,0,1779.4700000085868,optimism,13,252,190,0,5Y8/14,color-picker,72,448452,block2_target_trial,
full_sample,3MMN5BL1WZ4YT7ZI4TBF0RUCVAWM3Z,0,1444.9349999777041,pheasant,,,,,,html-slider-response,124,449273,block2_expectation_trial,73
full_sample,3MMN5BL1WZ4YT7ZI4TBF0RUCVAWM3Z,0,1336.219999997411,staple,21,202,202,202,N8,color-picker,125,450611,block2_target_trial,
full_sample,3CTOC39K37QQTIUK381DXGEBWINJ7X,0,9740.884999977425,mansion,15,135,220,178,5G8/6,color-picker,72,429172,block2_target_trial,
full_sample,3KIBXJ1WD5USP8S12FIR9H0J1WXOKR,0,2134.765000009793,optimism,,,,,,html-slider-response,73,451090,block2_expectation_trial,52
full_sample,3MMN5BL1WZ4YT7ZI4TBF0RUCVAWM3Z,0,1306.7150000133552,staple,,,,,,html-slider-response,126,452421,block2_expectation_trial,78
full_sample,36DSNE9QZ5YXEOMJKUIF8206M7XOJS,0,5341.5599999716505,rose,,,,,,html-slider-response,78,420245,block2_expectation_trial,85
full_sample,3KIBXJ1WD5USP8S12FIR9H0J1WXOKR,0,1743.224999998347,heroism,87,59,58,58,N2,color-picker,74,452838,block2_target_trial,
full_sample,3MMN5BL1WZ4YT7ZI4TBF0RUCVAWM3Z,0,1375.995000009425,shampoo,61,0,121,148,5B4/10,color-picker,127,453799,block2_target_trial,
full_sample,36DSNE9QZ5YXEOMJKUIF8206M7XOJS,0,2888.745000003837,rock,47,54,142,15,10GY5/12,color-picker,79,423140,block2_target_trial,
full_sample,3MMN5BL1WZ4YT7ZI4TBF0RUCVAWM3Z,0,1898.2600000454113,shampoo,,,,,,html-slider-response,128,456202,block2_expectation_trial,47
full_sample,3KIBXJ1WD5USP8S12FIR9H0J1WXOKR,0,2900.2650000038557,heroism,,,,,,html-slider-response,75,456241,block2_expectation_trial,12
full_sample,3MMN5BL1WZ4YT7ZI4TBF0RUCVAWM3Z,0,1375.7799999439158,heaven,2,238,234,140,10Y9/6,color-picker,129,457579,block2_target_trial,
full_sample,3KIBXJ1WD5USP8S12FIR9H0J1WXOKR,0,2221.239999998943,mansion,47,54,142,15,10GY5/12,color-picker,76,458463,block2_target_trial,
full_sample,3MMN5BL1WZ4YT7ZI4TBF0RUCVAWM3Z,0,1637.8200000035577,heaven,,,,,,html-slider-response,130,459719,block2_expectation_trial,84
full_sample,3MMN5BL1WZ4YT7ZI4TBF0RUCVAWM3Z,0,1319.8249999550171,robin,68,76,74,29,10Y3/4,color-picker,131,461041,block2_target_trial,
full_sample,3KIBXJ1WD5USP8S12FIR9H0J1WXOKR,0,1681.0649999970337,mansion,,,,,,html-slider-response,77,460648,block2_expectation_trial,19
full_sample,3KIBXJ1WD5USP8S12FIR9H0J1WXOKR,0,1661.0599999985425,rose,44,216,65,0,10R5/16,color-picker,78,462311,block2_target_trial,
full_sample,3MMN5BL1WZ4YT7ZI4TBF0RUCVAWM3Z,0,1451.7350000096485,robin,,,,,,html-slider-response,132,462996,block2_expectation_trial,67
full_sample,3MMN5BL1WZ4YT7ZI4TBF0RUCVAWM3Z,0,1310.4900000034831,ache,44,216,65,0,10R5/16,color-picker,133,464309,block2_target_trial,
full_sample,36DSNE9QZ5YXEOMJKUIF8206M7XOJS,0,9399.849999987055,rock,,,,,,html-slider-response,80,433045,block2_expectation_trial,55
full_sample,3MMN5BL1WZ4YT7ZI4TBF0RUCVAWM3Z,0,1346.7250000103377,ache,,,,,,html-slider-response,134,466159,block2_expectation_trial,72
full_sample,3KIBXJ1WD5USP8S12FIR9H0J1WXOKR,0,3013.470000005327,rose,,,,,,html-slider-response,79,465828,block2_expectation_trial,80
full_sample,3MMN5BL1WZ4YT7ZI4TBF0RUCVAWM3Z,0,1528.2249999581836,romance,63,132,71,157,5P4/12,color-picker,135,467689,block2_target_trial,
full_sample,3KIBXJ1WD5USP8S12FIR9H0J1WXOKR,0,2099.7199999983422,computer,87,59,58,58,N2,color-picker,80,467932,block2_target_trial,
full_sample,36DSNE9QZ5YXEOMJKUIF8206M7XOJS,0,3839.1450000344776,temptation,4,203,237,224,10G9/2,color-picker,81,436888,block2_target_trial,
full_sample,3MMN5BL1WZ4YT7ZI4TBF0RUCVAWM3Z,0,1098.580000048969,romance,,,,,,html-slider-response,136,469291,block2_expectation_trial,75
full_sample,3MMN5BL1WZ4YT7ZI4TBF0RUCVAWM3Z,0,1248.1450000195764,chalk,21,202,202,202,N8,color-picker,137,470541,block2_target_trial,
full_sample,3KIBXJ1WD5USP8S12FIR9H0J1WXOKR,0,2505.925000004936,computer,,,,,,html-slider-response,81,470940,block2_expectation_trial,29
full_sample,3MMN5BL1WZ4YT7ZI4TBF0RUCVAWM3Z,0,1714.719999989029,chalk,,,,,,html-slider-response,138,472759,block2_expectation_trial,84
full_sample,3KIBXJ1WD5USP8S12FIR9H0J1WXOKR,0,1774.8649999994086,romance,44,216,65,0,10R5/16,color-picker,82,472717,block2_target_trial,
full_sample,36DSNE9QZ5YXEOMJKUIF8206M7XOJS,0,4076.0699999518692,temptation,,,,,,html-slider-response,82,441469,block2_expectation_trial,59
full_sample,3KIBXJ1WD5USP8S12FIR9H0J1WXOKR,0,1651.514999990468,romance,,,,,,html-slider-response,83,474871,block2_expectation_trial,16
full_sample,36DSNE9QZ5YXEOMJKUIF8206M7XOJS,0,3078.8199999951757,fish,32,181,182,181,N7,color-picker,83,444562,block2_target_trial,
full_sample,3KIBXJ1WD5USP8S12FIR9H0J1WXOKR,0,1706.5099999890663,robin,44,216,65,0,10R5/16,color-picker,84,476579,block2_target_trial,
full_sample,3KIBXJ1WD5USP8S12FIR9H0J1WXOKR,0,1897.3799999948824,robin,,,,,,html-slider-response,85,478980,block2_expectation_trial,95
full_sample,3KIBXJ1WD5USP8S12FIR9H0J1WXOKR,0,1967.094999999972,urge,44,216,65,0,10R5/16,color-picker,86,480949,block2_target_trial,
full_sample,36DSNE9QZ5YXEOMJKUIF8206M7XOJS,0,4154.699999955483,fish,,,,,,html-slider-response,84,449222,block2_expectation_trial,65
full_sample,36DSNE9QZ5YXEOMJKUIF8206M7XOJS,0,2175.409999967087,pheasant,3,200,241,191,10GY9/4,color-picker,85,451402,block2_target_trial,
full_sample,3MMN5BL1WZ4YT7ZI4TBF0RUCVAWM3Z,0,10999.27500000922,,,,,,,survey-html-form,139,483760,survey,
full_sample,3KIBXJ1WD5USP8S12FIR9H0J1WXOKR,0,3279.6800000069197,urge,,,,,,html-slider-response,87,484733,block2_expectation_trial,36
full_sample,3MMN5BL1WZ4YT7ZI4TBF0RUCVAWM3Z,0,1535.7100000255741,,0,,,,,html-button-response,140,485298,,
full_sample,3KIBXJ1WD5USP8S12FIR9H0J1WXOKR,0,2530.1949999993667,pheasant,10,233,232,231,N9,color-picker,88,487267,block2_target_trial,
full_sample,3KIBXJ1WD5USP8S12FIR9H0J1WXOKR,0,2670.2649999933783,pheasant,,,,,,html-slider-response,89,490441,block2_expectation_trial,9
full_sample,36DSNE9QZ5YXEOMJKUIF8206M7XOJS,0,6775.510000006761,pheasant,,,,,,html-slider-response,86,458682,block2_expectation_trial,63
full_sample,3KIBXJ1WD5USP8S12FIR9H0J1WXOKR,0,1934.529999998631,lemon,13,252,190,0,5Y8/14,color-picker,90,492380,block2_target_trial,
full_sample,3KIBXJ1WD5USP8S12FIR9H0J1WXOKR,0,2343.4350000025006,lemon,,,,,,html-slider-response,91,495227,block2_expectation_trial,92
full_sample,3KIBXJ1WD5USP8S12FIR9H0J1WXOKR,0,2068.474999992759,toe,56,146,80,27,5YR4/8,color-picker,92,497300,block2_target_trial,
full_sample,36DSNE9QZ5YXEOMJKUIF8206M7XOJS,0,8594.120000023395,energy,47,54,142,15,10GY5/12,color-picker,87,467280,block2_target_trial,
full_sample,3KIBXJ1WD5USP8S12FIR9H0J1WXOKR,0,3754.6000000002095,toe,,,,,,html-slider-response,93,501559,block2_expectation_trial,7
full_sample,3CTOC39K37QQTIUK381DXGEBWINJ7X,0,50390.345000021625,mansion,,,,,,html-slider-response,73,480075,block2_expectation_trial,79
full_sample,36DSNE9QZ5YXEOMJKUIF8206M7XOJS,0,5054.835000017192,energy,,,,,,html-slider-response,88,472840,block2_expectation_trial,71
full_sample,3KIBXJ1WD5USP8S12FIR9H0J1WXOKR,0,3304.420000000391,desire,44,216,65,0,10R5/16,color-picker,94,504867,block2_target_trial,
full_sample,3KIBXJ1WD5USP8S12FIR9H0J1WXOKR,0,2149.490000010701,desire,,,,,,html-slider-response,95,507519,block2_expectation_trial,10
full_sample,36DSNE9QZ5YXEOMJKUIF8206M7XOJS,0,3255.50500000827,playfulness,24,203,172,0,10Y7/12,color-picker,89,476100,block2_target_trial,
full_sample,3KIBXJ1WD5USP8S12FIR9H0J1WXOKR,0,5227.775000006659,ache,44,216,65,0,10R5/16,color-picker,96,512750,block2_target_trial,
full_sample,3CTOC39K37QQTIUK381DXGEBWINJ7X,0,11884.74499998847,belt,43,163,162,162,N6,color-picker,74,491964,block2_target_trial,
full_sample,36DSNE9QZ5YXEOMJKUIF8206M7XOJS,0,5495.160000049509,playfulness,,,,,,html-slider-response,90,482099,block2_expectation_trial,61
full_sample,36DSNE9QZ5YXEOMJKUIF8206M7XOJS,0,2505.2750000031665,toe,3,200,241,191,10GY9/4,color-picker,91,484609,block2_target_trial,
full_sample,3KIBXJ1WD5USP8S12FIR9H0J1WXOKR,0,3389.965000009397,ache,,,,,,html-slider-response,97,516644,block2_expectation_trial,15
full_sample,3KIBXJ1WD5USP8S12FIR9H0J1WXOKR,0,2047.9000000050291,staple,21,202,202,202,N8,color-picker,98,518697,block2_target_trial,
full_sample,3KIBXJ1WD5USP8S12FIR9H0J1WXOKR,0,1799.074999988079,staple,,,,,,html-slider-response,99,521001,block2_expectation_trial,55
full_sample,36DSNE9QZ5YXEOMJKUIF8206M7XOJS,0,4140.324999985751,toe,,,,,,html-slider-response,92,489255,block2_expectation_trial,67
full_sample,3KIBXJ1WD5USP8S12FIR9H0J1WXOKR,0,1496.2800000066636,red,44,216,65,0,10R5/16,color-picker,100,522501,block2_catch_trial,
full_sample,3KIBXJ1WD5USP8S12FIR9H0J1WXOKR,0,2305.04999999539,chalk,10,233,232,231,N9,color-picker,101,525311,block2_target_trial,
full_sample,36DSNE9QZ5YXEOMJKUIF8206M7XOJS,0,5028.739999979734,sun,23,244,150,0,10YR7/14,color-picker,93,494289,block2_target_trial,
full_sample,3KIBXJ1WD5USP8S12FIR9H0J1WXOKR,0,3429.0150000015274,chalk,,,,,,html-slider-response,102,529242,block2_expectation_trial,72
full_sample,36DSNE9QZ5YXEOMJKUIF8206M7XOJS,0,4865.025000006426,sun,,,,,,html-slider-response,94,499659,block2_expectation_trial,85
full_sample,3KIBXJ1WD5USP8S12FIR9H0J1WXOKR,0,2381.745000006049,appearance,47,54,142,15,10GY5/12,color-picker,103,531628,block2_target_trial,
full_sample,36DSNE9QZ5YXEOMJKUIF8206M7XOJS,0,2202.4550000205636,tarantula,2,238,234,140,10Y9/6,color-picker,95,501868,block2_target_trial,
full_sample,3KIBXJ1WD5USP8S12FIR9H0J1WXOKR,0,1740.7600000005914,appearance,,,,,,html-slider-response,104,533872,block2_expectation_trial,21
full_sample,3KIBXJ1WD5USP8S12FIR9H0J1WXOKR,0,1759.8250000010012,tarantula,87,59,58,58,N2,color-picker,105,535634,block2_target_trial,
full_sample,3CTOC39K37QQTIUK381DXGEBWINJ7X,0,23816.670000029262,belt,,,,,,html-slider-response,75,516283,block2_expectation_trial,88
full_sample,36DSNE9QZ5YXEOMJKUIF8206M7XOJS,0,3986.5049999789335,tarantula,,,,,,html-slider-response,96,506363,block2_expectation_trial,73
full_sample,3KIBXJ1WD5USP8S12FIR9H0J1WXOKR,0,2248.0800000048475,tarantula,,,,,,html-slider-response,106,538385,block2_expectation_trial,100
full_sample,3CTOC39K37QQTIUK381DXGEBWINJ7X,0,1939.6549999946728,red,55,190,26,52,5R4/14,color-picker,76,518227,block2_catch_trial,
full_sample,3KIBXJ1WD5USP8S12FIR9H0J1WXOKR,0,1756.215000001248,belt,87,59,58,58,N2,color-picker,107,540146,block2_target_trial,
full_sample,36DSNE9QZ5YXEOMJKUIF8206M7XOJS,0,3664.29500002414,mansion,47,54,142,15,10GY5/12,color-picker,97,510032,block2_target_trial,
full_sample,3KIBXJ1WD5USP8S12FIR9H0J1WXOKR,0,1591.7850000114413,belt,,,,,,html-slider-response,108,542241,block2_expectation_trial,90
full_sample,3CTOC39K37QQTIUK381DXGEBWINJ7X,0,2447.3550000111572,excitement,29,173,169,229,10PB7/8,color-picker,77,521179,block2_target_trial,
full_sample,3KIBXJ1WD5USP8S12FIR9H0J1WXOKR,0,1706.1099999991711,temptation,44,216,65,0,10R5/16,color-picker,109,543952,block2_target_trial,
full_sample,3KIBXJ1WD5USP8S12FIR9H0J1WXOKR,0,1599.1800000047078,temptation,,,,,,html-slider-response,110,546055,block2_expectation_trial,56
full_sample,36DSNE9QZ5YXEOMJKUIF8206M7XOJS,0,3904.8150000162423,mansion,,,,,,html-slider-response,98,514442,block2_expectation_trial,68
full_sample,36DSNE9QZ5YXEOMJKUIF8206M7XOJS,0,2392.875000019558,divinity,1,255,225,176,10YR9/4,color-picker,99,516841,block2_target_trial,
full_sample,3CTOC39K37QQTIUK381DXGEBWINJ7X,0,8344.380000024103,excitement,,,,,,html-slider-response,78,530035,block2_expectation_trial,83
full_sample,3CTOC39K37QQTIUK381DXGEBWINJ7X,0,2164.950000005774,appearance,40,96,151,219,5PB6/10,color-picker,79,532203,block2_target_trial,
full_sample,36DSNE9QZ5YXEOMJKUIF8206M7XOJS,0,6095.865000039339,divinity,,,,,,html-slider-response,100,523441,block2_expectation_trial,68
full_sample,36DSNE9QZ5YXEOMJKUIF8206M7XOJS,0,3865.8000000286847,heaven,4,203,237,224,10G9/2,color-picker,101,527311,block2_target_trial,
full_sample,3KIBXJ1WD5USP8S12FIR9H0J1WXOKR,0,13261.194999999134,faith,44,216,65,0,10R5/16,color-picker,111,559318,block2_target_trial,
full_sample,3KIBXJ1WD5USP8S12FIR9H0J1WXOKR,0,2297.82000000705,faith,,,,,,html-slider-response,112,562120,block2_expectation_trial,12
full_sample,36DSNE9QZ5YXEOMJKUIF8206M7XOJS,0,3765.270000032615,heaven,,,,,,html-slider-response,102,531583,block2_expectation_trial,81
full_sample,3KIBXJ1WD5USP8S12FIR9H0J1WXOKR,0,1755.1099999982398,playfulness,13,252,190,0,5Y8/14,color-picker,113,563881,block2_target_trial,
full_sample,3CTOC39K37QQTIUK381DXGEBWINJ7X,0,9769.484999997076,appearance,,,,,,html-slider-response,80,542476,block2_expectation_trial,75
full_sample,36DSNE9QZ5YXEOMJKUIF8206M7XOJS,0,2491.2100000074133,lemon,13,252,190,0,5Y8/14,color-picker,103,534080,block2_target_trial,
full_sample,3KIBXJ1WD5USP8S12FIR9H0J1WXOKR,0,2677.6149999932386,playfulness,,,,,,html-slider-response,114,567062,block2_expectation_trial,61
full_sample,36DSNE9QZ5YXEOMJKUIF8206M7XOJS,0,4466.990000044461,lemon,,,,,,html-slider-response,104,539051,block2_expectation_trial,82
full_sample,3KIBXJ1WD5USP8S12FIR9H0J1WXOKR,0,5352.5749999971595,shampoo,10,233,232,231,N9,color-picker,115,572417,block2_target_trial,
full_sample,36DSNE9QZ5YXEOMJKUIF8206M7XOJS,0,3550.6249999743886,computer,4,203,237,224,10G9/2,color-picker,105,542610,block2_target_trial,
full_sample,3KIBXJ1WD5USP8S12FIR9H0J1WXOKR,0,1908.175000004121,shampoo,,,,,,html-slider-response,116,574828,block2_expectation_trial,12
full_sample,3CTOC39K37QQTIUK381DXGEBWINJ7X,0,13076.014999998733,divinity,59,0,117,66,5G4/10,color-picker,81,555555,block2_target_trial,
full_sample,36DSNE9QZ5YXEOMJKUIF8206M7XOJS,0,4024.6599999954924,computer,,,,,,html-slider-response,106,547139,block2_expectation_trial,74
full_sample,3CTOC39K37QQTIUK381DXGEBWINJ7X,0,2920.7550000282936,divinity,,,,,,html-slider-response,82,558979,block2_expectation_trial,17
full_sample,36DSNE9QZ5YXEOMJKUIF8206M7XOJS,0,2445.614999975078,gloom,5,205,236,235,10BG9/2,color-picker,107,549590,block2_target_trial,
full_sample,3KIBXJ1WD5USP8S12FIR9H0J1WXOKR,0,11424.32999999437,boat,21,202,202,202,N8,color-picker,117,586256,block2_target_trial,
full_sample,36DSNE9QZ5YXEOMJKUIF8206M7XOJS,0,4565.425000037067,gloom,,,,,,html-slider-response,108,554659,block2_expectation_trial,71
full_sample,36DSNE9QZ5YXEOMJKUIF8206M7XOJS,0,1815.6399999861605,appearance,2,238,234,140,10Y9/6,color-picker,109,556479,block2_target_trial,
full_sample,36DSNE9QZ5YXEOMJKUIF8206M7XOJS,0,4346.004999999423,appearance,,,,,,html-slider-response,110,561329,block2_expectation_trial,68
full_sample,36DSNE9QZ5YXEOMJKUIF8206M7XOJS,0,3114.369999966584,shampoo,27,29,194,202,10BG7/8,color-picker,111,564448,block2_target_trial,
full_sample,3N8OEVH1FRQBFZDG07AKGYHSL18OOC,0,4058.8299999944866,,,,,,,html-keyboard-response,0,4094,instructions,
full_sample,36DSNE9QZ5YXEOMJKUIF8206M7XOJS,0,4716.454999987036,shampoo,,,,,,html-slider-response,112,569672,block2_expectation_trial,76
full_sample,3N8OEVH1FRQBFZDG07AKGYHSL18OOC,0,2361.519999918528,,0,,,,,html-button-response,1,6462,,
full_sample,3CTOC39K37QQTIUK381DXGEBWINJ7X,0,22556.715000013355,bone,0,245,225,219,10R9/2,color-picker,83,581538,block2_target_trial,
full_sample,36DSNE9QZ5YXEOMJKUIF8206M7XOJS,0,3883.6000000010245,loyal,2,238,234,140,10Y9/6,color-picker,113,573562,block2_target_trial,
full_sample,3CTOC39K37QQTIUK381DXGEBWINJ7X,0,2953.654999961145,bone,,,,,,html-slider-response,84,584995,block2_expectation_trial,88
full_sample,36DSNE9QZ5YXEOMJKUIF8206M7XOJS,0,3805.5850000237115,loyal,,,,,,html-slider-response,114,577872,block2_expectation_trial,77
full_sample,36DSNE9QZ5YXEOMJKUIF8206M7XOJS,0,2854.8050000099465,excitement,7,229,228,239,10PB9/2,color-picker,115,580731,block2_target_trial,
full_sample,3CTOC39K37QQTIUK381DXGEBWINJ7X,0,8884.924999962095,gloom,68,76,74,29,10Y3/4,color-picker,85,593882,block2_target_trial,
full_sample,36DSNE9QZ5YXEOMJKUIF8206M7XOJS,0,3894.7899999911897,excitement,,,,,,html-slider-response,116,585131,block2_expectation_trial,76
full_sample,3AAJC4I4FGS9DS0QM3TWO07A6B1JZQ,0,1949.0499999956228,,,,,,,html-keyboard-response,0,1968,instructions,
full_sample,3CTOC39K37QQTIUK381DXGEBWINJ7X,0,2992.599999997765,gloom,,,,,,html-slider-response,86,597379,block2_expectation_trial,82
full_sample,36DSNE9QZ5YXEOMJKUIF8206M7XOJS,0,3355.7049999944866,sadness,80,46,52,38,5GY2/2,color-picker,117,588490,block2_target_trial,
full_sample,3AAJC4I4FGS9DS0QM3TWO07A6B1JZQ,0,4742.535000026692,,0,,,,,html-button-response,1,6713,,
full_sample,3KIBXJ1WD5USP8S12FIR9H0J1WXOKR,0,36589.0800000052,boat,,,,,,html-slider-response,118,623349,block2_expectation_trial,24
full_sample,36DSNE9QZ5YXEOMJKUIF8206M7XOJS,0,4175.600000016857,sadness,,,,,,html-slider-response,118,593170,block2_expectation_trial,78
full_sample,36DSNE9QZ5YXEOMJKUIF8206M7XOJS,0,2135.7650000136346,boat,3,200,241,191,10GY9/4,color-picker,119,595310,block2_target_trial,
full_sample,3KIBXJ1WD5USP8S12FIR9H0J1WXOKR,0,5017.910000009579,rock,43,163,162,162,N6,color-picker,119,628372,block2_target_trial,
full_sample,3CTOC39K37QQTIUK381DXGEBWINJ7X,0,9444.62000002386,desire,75,139,23,66,10RP3/10,color-picker,87,606826,block2_target_trial,
full_sample,3AAJC4I4FGS9DS0QM3TWO07A6B1JZQ,0,7085.045000014361,,,,,,,html-keyboard-response,2,13800,instructions,
full_sample,3KIBXJ1WD5USP8S12FIR9H0J1WXOKR,0,1601.8150000018068,rock,,,,,,html-slider-response,120,630478,block2_expectation_trial,70
full_sample,36DSNE9QZ5YXEOMJKUIF8206M7XOJS,0,4165.755000023637,boat,,,,,,html-slider-response,120,599981,block2_expectation_trial,72
full_sample,3AAJC4I4FGS9DS0QM3TWO07A6B1JZQ,0,1572.9350000037812,,,,,,,image-keyboard-response,3,15375,colorblindness_trial,
full_sample,3KIBXJ1WD5USP8S12FIR9H0J1WXOKR,0,1928.1500000070082,fish,21,202,202,202,N8,color-picker,121,632408,block2_target_trial,
full_sample,36DSNE9QZ5YXEOMJKUIF8206M7XOJS,0,1966.6449999785982,belt,2,238,234,140,10Y9/6,color-picker,121,601960,block2_target_trial,
full_sample,3AAJC4I4FGS9DS0QM3TWO07A6B1JZQ,0,2566.9549999875017,,,,,,,image-keyboard-response,4,17943,colorblindness_trial,
full_sample,3KIBXJ1WD5USP8S12FIR9H0J1WXOKR,0,2944.61500000034,fish,,,,,,html-slider-response,122,635857,block2_expectation_trial,65
full_sample,3CTOC39K37QQTIUK381DXGEBWINJ7X,0,8096.844999992754,desire,,,,,,html-slider-response,88,615426,block2_expectation_trial,89
full_sample,36DSNE9QZ5YXEOMJKUIF8206M7XOJS,0,3916.0200000042096,belt,,,,,,html-slider-response,122,606381,block2_expectation_trial,68
full_sample,3Y54SXRO1LLM5W2LSA8S9EF42VCTUF,0,236026.57499999995,,,,,,,html-keyboard-response,15,640037,instructions,
full_sample,3KIBXJ1WD5USP8S12FIR9H0J1WXOKR,0,3383.62499998766,relief,13,252,190,0,5Y8/14,color-picker,123,639245,block2_target_trial,
full_sample,3KIBXJ1WD5USP8S12FIR9H0J1WXOKR,0,1637.9400000005262,relief,,,,,,html-slider-response,124,641386,block2_expectation_trial,57
full_sample,36DSNE9QZ5YXEOMJKUIF8206M7XOJS,0,3721.049999992829,romance,62,0,113,178,5PB4/12,color-picker,123,610109,block2_target_trial,
full_sample,3AAJC4I4FGS9DS0QM3TWO07A6B1JZQ,0,8213.950000004843,,,,,,,image-keyboard-response,5,26159,colorblindness_trial,
full_sample,3KIBXJ1WD5USP8S12FIR9H0J1WXOKR,0,1972.8549999999814,fork,21,202,202,202,N8,color-picker,125,643363,block2_target_trial,
full_sample,3KIBXJ1WD5USP8S12FIR9H0J1WXOKR,0,1971.720000001369,fork,,,,,,html-slider-response,126,645838,block2_expectation_trial,85
full_sample,36DSNE9QZ5YXEOMJKUIF8206M7XOJS,0,3716.370000038296,romance,,,,,,html-slider-response,124,614329,block2_expectation_trial,72
full_sample,3Y54SXRO1LLM5W2LSA8S9EF42VCTUF,0,8741.955000001355,ache,32,181,182,181,N7,color-picker,16,648782,block1_target_trial,
full_sample,36DSNE9QZ5YXEOMJKUIF8206M7XOJS,0,1826.0950000258163,staple,3,200,241,191,10GY9/4,color-picker,125,616160,block2_target_trial,
full_sample,3AAJC4I4FGS9DS0QM3TWO07A6B1JZQ,0,8990.68999994779,,,,,,,html-keyboard-response,6,35151,instructions,
full_sample,36DSNE9QZ5YXEOMJKUIF8206M7XOJS,0,3637.705000001006,staple,,,,,,html-slider-response,126,620302,block2_expectation_trial,71
full_sample,3AAJC4I4FGS9DS0QM3TWO07A6B1JZQ,0,2310.639999981504,,,,,,,html-keyboard-response,7,37463,instructions,
full_sample,3KIBXJ1WD5USP8S12FIR9H0J1WXOKR,0,9019.335000004503,excitement,13,252,190,0,5Y8/14,color-picker,127,654859,block2_target_trial,
full_sample,3Y54SXRO1LLM5W2LSA8S9EF42VCTUF,0,9122.459999998682,belt,5,205,236,235,10BG9/2,color-picker,17,658408,block1_target_trial,
full_sample,3AAJC4I4FGS9DS0QM3TWO07A6B1JZQ,0,4062.705000047572,green,47,54,142,15,10GY5/12,color-picker,8,41529,color_trial,
full_sample,3KIBXJ1WD5USP8S12FIR9H0J1WXOKR,0,2788.8250000105472,excitement,,,,,,html-slider-response,128,658150,block2_expectation_trial,69
full_sample,36DSNE9QZ5YXEOMJKUIF8206M7XOJS,0,7013.63499998115,fork,15,135,220,178,5G8/6,color-picker,127,627328,block2_target_trial,
full_sample,3JRJSWSMQHL0HJ75NVNWNJP3M86E33,0,31726.000000024214,,,,,,,html-keyboard-response,0,31774,instructions,
full_sample,3KIBXJ1WD5USP8S12FIR9H0J1WXOKR,0,1724.1349999967497,gloom,21,202,202,202,N8,color-picker,129,659877,block2_target_trial,
full_sample,3CTOC39K37QQTIUK381DXGEBWINJ7X,0,22996.639999968465,tarantula,87,59,58,58,N2,color-picker,89,638426,block2_target_trial,
full_sample,3Y54SXRO1LLM5W2LSA8S9EF42VCTUF,0,4397.375000000466,toe,11,254,185,179,5R8/6,color-picker,18,663310,block1_target_trial,
full_sample,3KIBXJ1WD5USP8S12FIR9H0J1WXOKR,0,2483.2150000002002,gloom,,,,,,html-slider-response,130,662862,block2_expectation_trial,95
full_sample,3JRJSWSMQHL0HJ75NVNWNJP3M86E33,0,3646.999999997206,,0,,,,,html-button-response,1,35435,,
full_sample,3CTOC39K37QQTIUK381DXGEBWINJ7X,0,2872.01999995159,tarantula,,,,,,html-slider-response,90,641802,block2_expectation_trial,91
full_sample,36DSNE9QZ5YXEOMJKUIF8206M7XOJS,0,4215.855000016745,fork,,,,,,html-slider-response,128,632052,block2_expectation_trial,68
full_sample,3AAJC4I4FGS9DS0QM3TWO07A6B1JZQ,0,6707.530000014231,blue,62,0,113,178,5PB4/12,color-picker,9,48740,catch_trial_color_trials,
